%time,field.header.seq,field.header.stamp,field.header.frame_id,field.orientation.x,field.orientation.y,field.orientation.z,field.orientation.w,field.orientation_covariance0,field.orientation_covariance1,field.orientation_covariance2,field.orientation_covariance3,field.orientation_covariance4,field.orientation_covariance5,field.orientation_covariance6,field.orientation_covariance7,field.orientation_covariance8,field.angular_velocity.x,field.angular_velocity.y,field.angular_velocity.z,field.angular_velocity_covariance0,field.angular_velocity_covariance1,field.angular_velocity_covariance2,field.angular_velocity_covariance3,field.angular_velocity_covariance4,field.angular_velocity_covariance5,field.angular_velocity_covariance6,field.angular_velocity_covariance7,field.angular_velocity_covariance8,field.linear_acceleration.x,field.linear_acceleration.y,field.linear_acceleration.z,field.linear_acceleration_covariance0,field.linear_acceleration_covariance1,field.linear_acceleration_covariance2,field.linear_acceleration_covariance3,field.linear_acceleration_covariance4,field.linear_acceleration_covariance5,field.linear_acceleration_covariance6,field.linear_acceleration_covariance7,field.linear_acceleration_covariance8
1580877009674849140,1,1580877009674386024,,0.0150923279154,0.000278871407285,0.887862512182,0.459861178326,0.0,0.0,0.0,0.0,0.0,0.0,0.0,0.0,0.0,0.000731,0.000742,-0.001334,0.0,0.0,0.0,0.0,0.0,0.0,0.0,0.0,0.0,-0.255,-0.13,-9.674,0.0,0.0,0.0,0.0,0.0,0.0,0.0,0.0,0.0
1580877009700371752,2,1580877009699922084,,0.0151040833203,0.000282868559825,0.887870461688,0.459845441333,0.0,0.0,0.0,0.0,0.0,0.0,0.0,0.0,0.0,0.000434,0.000183,0.003689,0.0,0.0,0.0,0.0,0.0,0.0,0.0,0.0,0.0,-0.256,-0.131,-9.661,0.0,0.0,0.0,0.0,0.0,0.0,0.0,0.0,0.0
1580877009726011788,3,1580877009725553035,,0.0151040857882,0.000282736751822,0.887866448745,0.459853189447,0.0,0.0,0.0,0.0,0.0,0.0,0.0,0.0,0.0,-1e-06,-0.000206,-0.004067,0.0,0.0,0.0,0.0,0.0,0.0,0.0,0.0,0.0,-0.234,-0.151,-9.684,0.0,0.0,0.0,0.0,0.0,0.0,0.0,0.0,0.0
1580877009751656485,4,1580877009751140117,,0.0151003591402,0.000294103980444,0.887854480957,0.459876410899,0.0,0.0,0.0,0.0,0.0,0.0,0.0,0.0,0.0,0.001313,-0.000499,-0.002511,0.0,0.0,0.0,0.0,0.0,0.0,0.0,0.0,0.0,-0.247,-0.152,-9.662,0.0,0.0,0.0,0.0,0.0,0.0,0.0,0.0,0.0
1580877009777174684,5,1580877009776714086,,0.0151043644107,0.000302247403857,0.887866517585,0.459853034973,0.0,0.0,0.0,0.0,0.0,0.0,0.0,0.0,0.0,0.001318,-0.00029,0.003606,0.0,0.0,0.0,0.0,0.0,0.0,0.0,0.0,0.0,-0.243,-0.151,-9.659,0.0,0.0,0.0,0.0,0.0,0.0,0.0,0.0,0.0
1580877009802871942,6,1580877009802329063,,0.015108382793,0.000309731809894,0.887858488831,0.459868399269,0.0,0.0,0.0,0.0,0.0,0.0,0.0,0.0,0.0,-0.000423,0.000804,-0.003601,0.0,0.0,0.0,0.0,0.0,0.0,0.0,0.0,0.0,-0.262,-0.138,-9.672,0.0,0.0,0.0,0.0,0.0,0.0,0.0,0.0,0.0
1580877009828074740,7,1580877009827697992,,0.0151083800895,0.000309863655394,0.887862501906,0.459860651224,0.0,0.0,0.0,0.0,0.0,0.0,0.0,0.0,0.0,0.000542,0.000707,-9e-06,0.0,0.0,0.0,0.0,0.0,0.0,0.0,0.0,0.0,-0.243,-0.12,-9.68,0.0,0.0,0.0,0.0,0.0,0.0,0.0,0.0,0.0
1580877009854854455,8,1580877009854443073,,0.0150966170821,0.000306261863065,0.887866591427,0.459853144149,0.0,0.0,0.0,0.0,0.0,0.0,0.0,0.0,0.0,-0.000247,0.000416,0.002102,0.0,0.0,0.0,0.0,0.0,0.0,0.0,0.0,0.0,-0.263,-0.12,-9.645,0.0,0.0,0.0,0.0,0.0,0.0,0.0,0.0,0.0
1580877009880319666,9,1580877009879955053,,0.0151043617725,0.000302379214291,0.887870530526,0.459845286858,0.0,0.0,0.0,0.0,0.0,0.0,0.0,0.0,0.0,0.000825,0.000157,-0.00026,0.0,0.0,0.0,0.0,0.0,0.0,0.0,0.0,0.0,-0.265,-0.149,-9.682,0.0,0.0,0.0,0.0,0.0,0.0,0.0,0.0,0.0
1580877009905933139,10,1580877009905488014,,0.015104078381,0.000283132175766,0.887878487369,0.459829945,0.0,0.0,0.0,0.0,0.0,0.0,0.0,0.0,0.0,-0.000538,0.000625,0.001645,0.0,0.0,0.0,0.0,0.0,0.0,0.0,0.0,0.0,-0.248,-0.133,-9.68,0.0,0.0,0.0,0.0,0.0,0.0,0.0,0.0,0.0
1580877009931532739,11,1580877009931077957,,0.0151040734371,0.000283395791621,0.887886512781,0.459814448527,0.0,0.0,0.0,0.0,0.0,0.0,0.0,0.0,0.0,7.5e-05,2.3e-05,0.00329,0.0,0.0,0.0,0.0,0.0,0.0,0.0,0.0,0.0,-0.264,-0.137,-9.647,0.0,0.0,0.0,0.0,0.0,0.0,0.0,0.0,0.0
1580877009956902210,12,1580877009956516027,,0.0151118282495,0.000278986045062,0.887874400513,0.459837584074,0.0,0.0,0.0,0.0,0.0,0.0,0.0,0.0,0.0,0.000227,-4.8e-05,-0.004204,0.0,0.0,0.0,0.0,0.0,0.0,0.0,0.0,0.0,-0.249,-0.12,-9.68,0.0,0.0,0.0,0.0,0.0,0.0,0.0,0.0,0.0
1580877009982556281,13,1580877009982176065,,0.0150963334518,0.000287014690529,0.887874548544,0.459837802259,0.0,0.0,0.0,0.0,0.0,0.0,0.0,0.0,0.0,3.3e-05,0.000492,-0.001306,0.0,0.0,0.0,0.0,0.0,0.0,0.0,0.0,0.0,-0.252,-0.149,-9.671,0.0,0.0,0.0,0.0,0.0,0.0,0.0,0.0,0.0
1580877010008258695,14,1580877010007806062,,0.0150885860513,0.000291029013231,0.887874622458,0.459837911299,0.0,0.0,0.0,0.0,0.0,0.0,0.0,0.0,0.0,0.000302,0.001197,-0.000819,0.0,0.0,0.0,0.0,0.0,0.0,0.0,0.0,0.0,-0.243,-0.156,-9.69,0.0,0.0,0.0,0.0,0.0,0.0,0.0,0.0,0.0
1580877010033700506,15,1580877010033287048,,0.0150768207887,0.000287558307708,0.8878827244,0.459822655485,0.0,0.0,0.0,0.0,0.0,0.0,0.0,0.0,0.0,-0.000182,0.001323,0.002995,0.0,0.0,0.0,0.0,0.0,0.0,0.0,0.0,0.0,-0.261,-0.123,-9.651,0.0,0.0,0.0,0.0,0.0,0.0,0.0,0.0,0.0
1580877010059584985,16,1580877010058687925,,0.0150805531448,0.000275927485733,0.887886665633,0.459814929913,0.0,0.0,0.0,0.0,0.0,0.0,0.0,0.0,0.0,0.000209,0.000202,0.000766,0.0,0.0,0.0,0.0,0.0,0.0,0.0,0.0,0.0,-0.243,-0.144,-9.685,0.0,0.0,0.0,0.0,0.0,0.0,0.0,0.0,0.0
1580877010084681572,17,1580877010084265947,,0.0150805579583,0.000275664280386,0.887878640214,0.459830426389,0.0,0.0,0.0,0.0,0.0,0.0,0.0,0.0,0.0,-0.001336,0.000508,-0.001694,0.0,0.0,0.0,0.0,0.0,0.0,0.0,0.0,0.0,-0.248,-0.14,-9.679,0.0,0.0,0.0,0.0,0.0,0.0,0.0,0.0,0.0
1580877010110107681,18,1580877010109627008,,0.0150883053958,0.000271650026584,0.887878566229,0.459830317485,0.0,0.0,0.0,0.0,0.0,0.0,0.0,0.0,0.0,-0.000579,-0.0014,0.001441,0.0,0.0,0.0,0.0,0.0,0.0,0.0,0.0,0.0,-0.254,-0.142,-9.688,0.0,0.0,0.0,0.0,0.0,0.0,0.0,0.0,0.0
1580877010136317732,19,1580877010135363101,,0.015092315733,0.000279529934054,0.887882576566,0.459822437578,0.0,0.0,0.0,0.0,0.0,0.0,0.0,0.0,0.0,0.00028,-0.000626,-0.001127,0.0,0.0,0.0,0.0,0.0,0.0,0.0,0.0,0.0,-0.269,-0.151,-9.686,0.0,0.0,0.0,0.0,0.0,0.0,0.0,0.0,0.0
1580877010161129133,20,1580877010160645008,,0.0151040759096,0.000283263983705,0.887882500109,0.459822196781,0.0,0.0,0.0,0.0,0.0,0.0,0.0,0.0,0.0,-0.001248,0.000422,-0.001818,0.0,0.0,0.0,0.0,0.0,0.0,0.0,0.0,0.0,-0.258,-0.127,-9.671,0.0,0.0,0.0,0.0,0.0,0.0,0.0,0.0,0.0
1580877010186588788,21,1580877010186081886,,0.0150960551671,0.000267504034839,0.887874479366,0.45983795673,0.0,0.0,0.0,0.0,0.0,0.0,0.0,0.0,0.0,-0.000234,-0.000596,-0.000582,0.0,0.0,0.0,0.0,0.0,0.0,0.0,0.0,0.0,-0.251,-0.14,-9.665,0.0,0.0,0.0,0.0,0.0,0.0,0.0,0.0,0.0
1580877010212191417,22,1580877010211716890,,0.0150883053958,0.000271650026584,0.887878566229,0.459830317485,0.0,0.0,0.0,0.0,0.0,0.0,0.0,0.0,0.0,-0.000232,-1.1e-05,-0.001904,0.0,0.0,0.0,0.0,0.0,0.0,0.0,0.0,0.0,-0.262,-0.135,-9.685,0.0,0.0,0.0,0.0,0.0,0.0,0.0,0.0,0.0
1580877010238042543,23,1580877010237245082,,0.015096057501,0.000267372296895,0.887870466489,0.459845704879,0.0,0.0,0.0,0.0,0.0,0.0,0.0,0.0,0.0,-0.001406,0.000222,-0.002466,0.0,0.0,0.0,0.0,0.0,0.0,0.0,0.0,0.0,-0.246,-0.14,-9.679,0.0,0.0,0.0,0.0,0.0,0.0,0.0,0.0,0.0
1580877010262837080,24,1580877010262430906,,0.0150960621652,0.000267108820947,0.887862440533,0.459861201072,0.0,0.0,0.0,0.0,0.0,0.0,0.0,0.0,0.0,-6.1e-05,-0.000228,-0.004079,0.0,0.0,0.0,0.0,0.0,0.0,0.0,0.0,0.0,-0.254,-0.154,-9.662,0.0,0.0,0.0,0.0,0.0,0.0,0.0,0.0,0.0
1580877010288217668,25,1580877010287807941,,0.015096057501,0.000267372296895,0.887870466489,0.459845704879,0.0,0.0,0.0,0.0,0.0,0.0,0.0,0.0,0.0,0.000432,0.000614,0.002147,0.0,0.0,0.0,0.0,0.0,0.0,0.0,0.0,0.0,-0.246,-0.123,-9.673,0.0,0.0,0.0,0.0,0.0,0.0,0.0,0.0,0.0
1580877010314030549,26,1580877010313456058,,0.0150880294785,0.000252007701789,0.8878744839,0.459838220136,0.0,0.0,0.0,0.0,0.0,0.0,0.0,0.0,0.0,-0.001687,5.2e-05,0.000864,0.0,0.0,0.0,0.0,0.0,0.0,0.0,0.0,0.0,-0.255,-0.134,-9.677,0.0,0.0,0.0,0.0,0.0,0.0,0.0,0.0,0.0
1580877010339250526,27,1580877010338860988,,0.0150802820753,0.000256022021927,0.887874558022,0.45983832894,0.0,0.0,0.0,0.0,0.0,0.0,0.0,0.0,0.0,-0.000641,0.000407,0.000223,0.0,0.0,0.0,0.0,0.0,0.0,0.0,0.0,0.0,-0.269,-0.139,-9.67,0.0,0.0,0.0,0.0,0.0,0.0,0.0,0.0,0.0
1580877010365014846,28,1580877010364419937,,0.0150840187634,0.000244127902349,0.887870473185,0.459846099936,0.0,0.0,0.0,0.0,0.0,0.0,0.0,0.0,0.0,-0.000826,-0.000554,-0.000971,0.0,0.0,0.0,0.0,0.0,0.0,0.0,0.0,0.0,-0.249,-0.137,-9.666,0.0,0.0,0.0,0.0,0.0,0.0,0.0,0.0,0.0
1580877010391539818,29,1580877010390827894,,0.0150840166324,0.000244259535235,0.887874486065,0.459838351786,0.0,0.0,0.0,0.0,0.0,0.0,0.0,0.0,0.0,-0.00026,-0.000245,0.003858,0.0,0.0,0.0,0.0,0.0,0.0,0.0,0.0,0.0,-0.257,-0.146,-9.662,0.0,0.0,0.0,0.0,0.0,0.0,0.0,0.0,0.0
1580877010416671371,30,1580877010416212081,,0.0150880272787,0.000252139369676,0.887878496712,0.459830471952,0.0,0.0,0.0,0.0,0.0,0.0,0.0,0.0,0.0,0.000783,0.000158,0.002249,0.0,0.0,0.0,0.0,0.0,0.0,0.0,0.0,0.0,-0.243,-0.155,-9.683,0.0,0.0,0.0,0.0,0.0,0.0,0.0,0.0,0.0
1580877010442281362,31,1580877010441770076,,0.0150802798405,0.000256153622205,0.887878570834,0.459830580756,0.0,0.0,0.0,0.0,0.0,0.0,0.0,0.0,0.0,0.001695,5.8e-05,-0.0006,0.0,0.0,0.0,0.0,0.0,0.0,0.0,0.0,0.0,-0.249,-0.142,-9.665,0.0,0.0,0.0,0.0,0.0,0.0,0.0,0.0,0.0
1580877010467567529,32,1580877010467144966,,0.0150920377875,0.000260019274114,0.88788250722,0.459822592048,0.0,0.0,0.0,0.0,0.0,0.0,0.0,0.0,0.0,0.000565,-0.000797,0.002791,0.0,0.0,0.0,0.0,0.0,0.0,0.0,0.0,0.0,-0.27,-0.13,-9.667,0.0,0.0,0.0,0.0,0.0,0.0,0.0,0.0,0.0
1580877010492929586,33,1580877010492506027,,0.0150842833976,0.000264428365387,0.887894619135,0.459799456049,0.0,0.0,0.0,0.0,0.0,0.0,0.0,0.0,0.0,-0.000743,0.000146,0.001752,0.0,0.0,0.0,0.0,0.0,0.0,0.0,0.0,0.0,-0.252,-0.143,-9.682,0.0,0.0,0.0,0.0,0.0,0.0,0.0,0.0,0.0
1580877010518582362,34,1580877010518122911,,0.0150960481587,0.000267899248547,0.887886517592,0.459814712073,0.0,0.0,0.0,0.0,0.0,0.0,0.0,0.0,0.0,-0.000127,-7e-05,-0.001465,0.0,0.0,0.0,0.0,0.0,0.0,0.0,0.0,0.0,-0.257,-0.123,-9.667,0.0,0.0,0.0,0.0,0.0,0.0,0.0,0.0,0.0
1580877010543984663,35,1580877010543709039,,0.0150920377875,0.000260019274114,0.88788250722,0.459822592048,0.0,0.0,0.0,0.0,0.0,0.0,0.0,0.0,0.0,-0.000453,-0.000715,-0.002873,0.0,0.0,0.0,0.0,0.0,0.0,0.0,0.0,0.0,-0.26,-0.15,-9.658,0.0,0.0,0.0,0.0,0.0,0.0,0.0,0.0,0.0
1580877010569516557,36,1580877010569063901,,0.015092313293,0.000279661639344,0.88788658924,0.459814689323,0.0,0.0,0.0,0.0,0.0,0.0,0.0,0.0,0.0,0.000703,8.2e-05,0.001262,0.0,0.0,0.0,0.0,0.0,0.0,0.0,0.0,0.0,-0.254,-0.137,-9.645,0.0,0.0,0.0,0.0,0.0,0.0,0.0,0.0,0.0
1580877010594948980,37,1580877010594512939,,0.0150923084097,0.00027992504986,0.887894614385,0.459799192709,0.0,0.0,0.0,0.0,0.0,0.0,0.0,0.0,0.0,-0.001364,-0.00103,0.002335,0.0,0.0,0.0,0.0,0.0,0.0,0.0,0.0,0.0,-0.269,-0.129,-9.681,0.0,0.0,0.0,0.0,0.0,0.0,0.0,0.0,0.0
1580877010620358140,38,1580877010619956016,,0.0150805507363,0.000276059088375,0.887890678242,0.459807181623,0.0,0.0,0.0,0.0,0.0,0.0,0.0,0.0,0.0,0.000809,-0.000951,-0.00279,0.0,0.0,0.0,0.0,0.0,0.0,0.0,0.0,0.0,-0.248,-0.15,-9.667,0.0,0.0,0.0,0.0,0.0,0.0,0.0,0.0,0.0
1580877010645876371,39,1580877010645473003,,0.0150845657865,0.000283675758572,0.887886663192,0.459814798293,0.0,0.0,0.0,0.0,0.0,0.0,0.0,0.0,0.0,0.000445,-0.000117,0.000759,0.0,0.0,0.0,0.0,0.0,0.0,0.0,0.0,0.0,-0.248,-0.146,-9.686,0.0,0.0,0.0,0.0,0.0,0.0,0.0,0.0,0.0
1580877010671492698,40,1580877010670959949,,0.0150808257615,0.00029570136135,0.887894759678,0.459799279024,0.0,0.0,0.0,0.0,0.0,0.0,0.0,0.0,0.0,-0.000918,-0.000367,-0.001706,0.0,0.0,0.0,0.0,0.0,0.0,0.0,0.0,0.0,-0.251,-0.153,-9.668,0.0,0.0,0.0,0.0,0.0,0.0,0.0,0.0,0.0
1580877010697046346,41,1580877010696520090,,0.0150966037046,0.000306920576958,0.887886655461,0.459814403223,0.0,0.0,0.0,0.0,0.0,0.0,0.0,0.0,0.0,0.000147,0.000923,-0.001428,0.0,0.0,0.0,0.0,0.0,0.0,0.0,0.0,0.0,-0.254,-0.147,-9.655,0.0,0.0,0.0,0.0,0.0,0.0,0.0,0.0,0.0
1580877010722237035,42,1580877010721827030,,0.015100613595,0.000314800627433,0.887890665351,0.459806523172,0.0,0.0,0.0,0.0,0.0,0.0,0.0,0.0,0.0,-0.000418,0.001022,0.003628,0.0,0.0,0.0,0.0,0.0,0.0,0.0,0.0,0.0,-0.253,-0.151,-9.665,0.0,0.0,0.0,0.0,0.0,0.0,0.0,0.0,0.0
1580877010747817623,43,1580877010747422933,,0.0151006080984,0.000315064182811,0.887898690354,0.459791026487,0.0,0.0,0.0,0.0,0.0,0.0,0.0,0.0,0.0,0.000834,-0.00099,0.001776,0.0,0.0,0.0,0.0,0.0,0.0,0.0,0.0,0.0,-0.266,-0.163,-9.661,0.0,0.0,0.0,0.0,0.0,0.0,0.0,0.0,0.0
1580877010773339658,44,1580877010772893905,,0.0151201212359,0.000314520825468,0.887890514947,0.459806172727,0.0,0.0,0.0,0.0,0.0,0.0,0.0,0.0,0.0,-0.000942,-0.000745,-0.003525,0.0,0.0,0.0,0.0,0.0,0.0,0.0,0.0,0.0,-0.246,-0.139,-9.642,0.0,0.0,0.0,0.0,0.0,0.0,0.0,0.0,0.0
1580877010799104713,45,1580877010798440933,,0.0151241394235,0.000322005165917,0.887882486904,0.459821537304,0.0,0.0,0.0,0.0,0.0,0.0,0.0,0.0,0.0,0.002844,-0.000266,0.001197,0.0,0.0,0.0,0.0,0.0,0.0,0.0,0.0,0.0,-0.253,-0.141,-9.69,0.0,0.0,0.0,0.0,0.0,0.0,0.0,0.0,0.0
1580877010824397818,46,1580877010823849916,,0.0151318813347,0.000318255076363,0.88789043829,0.459805931316,0.0,0.0,0.0,0.0,0.0,0.0,0.0,0.0,0.0,0.000406,-3.5e-05,-0.000152,0.0,0.0,0.0,0.0,0.0,0.0,0.0,0.0,0.0,-0.255,-0.158,-9.703,0.0,0.0,0.0,0.0,0.0,0.0,0.0,0.0,0.0
1580877010849809444,47,1580877010849339008,,0.0151278633488,0.00031077080165,0.887898466028,0.459790566667,0.0,0.0,0.0,0.0,0.0,0.0,0.0,0.0,0.0,-0.000394,-2e-05,0.00297,0.0,0.0,0.0,0.0,0.0,0.0,0.0,0.0,0.0,-0.24,-0.138,-9.656,0.0,0.0,0.0,0.0,0.0,0.0,0.0,0.0,0.0
1580877010876033770,48,1580877010875600099,,0.0151318841115,0.000318123025775,0.887886425693,0.459813679604,0.0,0.0,0.0,0.0,0.0,0.0,0.0,0.0,0.0,8.6e-05,0.000369,-0.005005,0.0,0.0,0.0,0.0,0.0,0.0,0.0,0.0,0.0,-0.255,-0.145,-9.671,0.0,0.0,0.0,0.0,0.0,0.0,0.0,0.0,0.0
1580877010900516270,49,1580877010900132894,,0.0151318896615,0.000317858924527,0.887878400295,0.459829176076,0.0,0.0,0.0,0.0,0.0,0.0,0.0,0.0,0.0,-0.000332,0.000304,-0.005089,0.0,0.0,0.0,0.0,0.0,0.0,0.0,0.0,0.0,-0.262,-0.155,-9.649,0.0,0.0,0.0,0.0,0.0,0.0,0.0,0.0,0.0
1580877010927019997,50,1580877010926625013,,0.0151318896615,0.000317858924527,0.887878400295,0.459829176076,0.0,0.0,0.0,0.0,0.0,0.0,0.0,0.0,0.0,-0.000408,0.000535,0.002292,0.0,0.0,0.0,0.0,0.0,0.0,0.0,0.0,0.0,-0.234,-0.153,-9.664,0.0,0.0,0.0,0.0,0.0,0.0,0.0,0.0,0.0
1580877010952397166,51,1580877010951997041,,0.0151201212359,0.000314520825468,0.887890514947,0.459806172727,0.0,0.0,0.0,0.0,0.0,0.0,0.0,0.0,0.0,-0.000227,0.00029,0.001847,0.0,0.0,0.0,0.0,0.0,0.0,0.0,0.0,0.0,-0.274,-0.136,-9.683,0.0,0.0,0.0,0.0,0.0,0.0,0.0,0.0,0.0
1580877010977928881,52,1580877010977550029,,0.015116111346,0.00030664060607,0.887886505057,0.459814052946,0.0,0.0,0.0,0.0,0.0,0.0,0.0,0.0,0.0,-7.5e-05,0.000432,0.001412,0.0,0.0,0.0,0.0,0.0,0.0,0.0,0.0,0.0,-0.28,-0.137,-9.652,0.0,0.0,0.0,0.0,0.0,0.0,0.0,0.0,0.0
1580877011003384436,53,1580877011002854108,,0.0151161166956,0.00030637678011,0.887878479653,0.459829549419,0.0,0.0,0.0,0.0,0.0,0.0,0.0,0.0,0.0,0.000397,-0.001869,-0.003664,0.0,0.0,0.0,0.0,0.0,0.0,0.0,0.0,0.0,-0.268,-0.132,-9.652,0.0,0.0,0.0,0.0,0.0,0.0,0.0,0.0,0.0
1580877011028705645,54,1580877011028318881,,0.0151161140214,0.000306508693101,0.887882492389,0.4598218012,0.0,0.0,0.0,0.0,0.0,0.0,0.0,0.0,0.0,0.000342,2.2e-05,0.001743,0.0,0.0,0.0,0.0,0.0,0.0,0.0,0.0,0.0,-0.264,-0.131,-9.694,0.0,0.0,0.0,0.0,0.0,0.0,0.0,0.0,0.0
1580877011054714057,55,1580877011054248094,,0.0151198410634,0.000295142104455,0.887894458851,0.459798578987,0.0,0.0,0.0,0.0,0.0,0.0,0.0,0.0,0.0,0.000287,-0.000446,0.003051,0.0,0.0,0.0,0.0,0.0,0.0,0.0,0.0,0.0,-0.267,-0.126,-9.68,0.0,0.0,0.0,0.0,0.0,0.0,0.0,0.0,0.0
1580877011080274599,56,1580877011079837083,,0.0151275835503,0.000291392144629,0.887902409662,0.459782972959,0.0,0.0,0.0,0.0,0.0,0.0,0.0,0.0,0.0,0.000567,0.000389,0.002977,0.0,0.0,0.0,0.0,0.0,0.0,0.0,0.0,0.0,-0.237,-0.126,-9.666,0.0,0.0,0.0,0.0,0.0,0.0,0.0,0.0,0.0
1580877011104955874,57,1580877011104590892,,0.0151275835503,0.000291392144629,0.887902409662,0.459782972959,0.0,0.0,0.0,0.0,0.0,0.0,0.0,0.0,0.0,0.000496,-0.000333,0.002002,0.0,0.0,0.0,0.0,0.0,0.0,0.0,0.0,0.0,-0.268,-0.139,-9.681,0.0,0.0,0.0,0.0,0.0,0.0,0.0,0.0,0.0
1580877011130321055,58,1580877011129905939,,0.0151275784622,0.000291656170725,0.887910434253,0.459767476069,0.0,0.0,0.0,0.0,0.0,0.0,0.0,0.0,0.0,-4.2e-05,-0.000426,0.002546,0.0,0.0,0.0,0.0,0.0,0.0,0.0,0.0,0.0,-0.23,-0.156,-9.672,0.0,0.0,0.0,0.0,0.0,0.0,0.0,0.0,0.0
1580877011157047369,59,1580877011155488967,,0.0151315828462,0.000299800794999,0.887922468051,0.45974409844,0.0,0.0,0.0,0.0,0.0,0.0,0.0,0.0,0.0,0.000102,-0.000706,0.003132,0.0,0.0,0.0,0.0,0.0,0.0,0.0,0.0,0.0,-0.251,-0.124,-9.662,0.0,0.0,0.0,0.0,0.0,0.0,0.0,0.0,0.0
1580877011181477998,60,1580877011180809974,,0.015119828171,0.000295801831696,0.887914520504,0.459759836845,0.0,0.0,0.0,0.0,0.0,0.0,0.0,0.0,0.0,0.000171,0.000786,-0.005198,0.0,0.0,0.0,0.0,0.0,0.0,0.0,0.0,0.0,-0.248,-0.121,-9.698,0.0,0.0,0.0,0.0,0.0,0.0,0.0,0.0,0.0
1580877011206506035,61,1580877011206011056,,0.0151198255891,0.000295933777076,0.887918532632,0.459752088311,0.0,0.0,0.0,0.0,0.0,0.0,0.0,0.0,0.0,-0.000186,0.001105,0.002932,0.0,0.0,0.0,0.0,0.0,0.0,0.0,0.0,0.0,-0.252,-0.153,-9.657,0.0,0.0,0.0,0.0,0.0,0.0,0.0,0.0,0.0
1580877011231902143,62,1580877011231487035,,0.0151238403319,0.000303550347614,0.887914517889,0.459759704882,0.0,0.0,0.0,0.0,0.0,0.0,0.0,0.0,0.0,-0.000925,0.00111,-0.001193,0.0,0.0,0.0,0.0,0.0,0.0,0.0,0.0,0.0,-0.245,-0.165,-9.684,0.0,0.0,0.0,0.0,0.0,0.0,0.0,0.0,0.0
1580877011257257434,63,1580877011256742000,,0.0151238456275,0.000303286386758,0.887906493433,0.459775201844,0.0,0.0,0.0,0.0,0.0,0.0,0.0,0.0,0.0,-0.000114,-0.000173,-0.001312,0.0,0.0,0.0,0.0,0.0,0.0,0.0,0.0,0.0,-0.24,-0.134,-9.644,0.0,0.0,0.0,0.0,0.0,0.0,0.0,0.0,0.0
1580877011282495186,64,1580877011281997919,,0.0151160952696,0.000307432083388,0.887910579648,0.459767562687,0.0,0.0,0.0,0.0,0.0,0.0,0.0,0.0,0.0,-0.000765,-4.5e-05,0.002773,0.0,0.0,0.0,0.0,0.0,0.0,0.0,0.0,0.0,-0.272,-0.148,-9.664,0.0,0.0,0.0,0.0,0.0,0.0,0.0,0.0,0.0
1580877011308173443,65,1580877011307620048,,0.0151083448394,0.000311577644748,0.887914665729,0.459759923459,0.0,0.0,0.0,0.0,0.0,0.0,0.0,0.0,0.0,0.000516,0.001435,0.002431,0.0,0.0,0.0,0.0,0.0,0.0,0.0,0.0,0.0,-0.251,-0.14,-9.666,0.0,0.0,0.0,0.0,0.0,0.0,0.0,0.0,0.0
1580877011333505103,66,1580877011333014011,,0.0151083475578,0.000311445799555,0.887910653533,0.459767671959,0.0,0.0,0.0,0.0,0.0,0.0,0.0,0.0,0.0,-0.000178,-0.001296,-0.002882,0.0,0.0,0.0,0.0,0.0,0.0,0.0,0.0,0.0,-0.262,-0.167,-9.67,0.0,0.0,0.0,0.0,0.0,0.0,0.0,0.0,0.0
1580877011358723140,67,1580877011358304023,,0.015104609254,0.000323339811109,0.88791473676,0.4597599009,0.0,0.0,0.0,0.0,0.0,0.0,0.0,0.0,0.0,0.000979,0.000972,0.002078,0.0,0.0,0.0,0.0,0.0,0.0,0.0,0.0,0.0,-0.267,-0.136,-9.67,0.0,0.0,0.0,0.0,0.0,0.0,0.0,0.0,0.0
1580877011384796330,68,1580877011384305000,,0.0151123486359,0.000319721802405,0.887926699155,0.459736545888,0.0,0.0,0.0,0.0,0.0,0.0,0.0,0.0,0.0,0.000207,-0.00056,0.00337,0.0,0.0,0.0,0.0,0.0,0.0,0.0,0.0,0.0,-0.278,-0.142,-9.666,0.0,0.0,0.0,0.0,0.0,0.0,0.0,0.0,0.0
1580877011410416985,69,1580877011409969091,,0.0151163577353,0.00032760233972,0.887930708254,0.45972866535,0.0,0.0,0.0,0.0,0.0,0.0,0.0,0.0,0.0,0.000749,-0.000926,-0.001771,0.0,0.0,0.0,0.0,0.0,0.0,0.0,0.0,0.0,-0.26,-0.125,-9.689,0.0,0.0,0.0,0.0,0.0,0.0,0.0,0.0,0.0
1580877011436287419,70,1580877011435492992,,0.0151126187768,0.000339496259406,0.887934790934,0.459720894179,0.0,0.0,0.0,0.0,0.0,0.0,0.0,0.0,0.0,0.000198,3.8e-05,0.000375,0.0,0.0,0.0,0.0,0.0,0.0,0.0,0.0,0.0,-0.241,-0.124,-9.659,0.0,0.0,0.0,0.0,0.0,0.0,0.0,0.0,0.0
1580877011461827696,71,1580877011461272001,,0.015112334671,0.000320381202704,0.887946758101,0.459697802339,0.0,0.0,0.0,0.0,0.0,0.0,0.0,0.0,0.0,-0.000104,-0.001364,0.003261,0.0,0.0,0.0,0.0,0.0,0.0,0.0,0.0,0.0,-0.258,-0.145,-9.655,0.0,0.0,0.0,0.0,0.0,0.0,0.0,0.0,0.0
1580877011486693502,72,1580877011486263036,,0.0151163491535,0.000327998084928,0.887942743618,0.459705419221,0.0,0.0,0.0,0.0,0.0,0.0,0.0,0.0,0.0,-0.001188,-0.000998,-0.002383,0.0,0.0,0.0,0.0,0.0,0.0,0.0,0.0,0.0,-0.257,-0.141,-9.69,0.0,0.0,0.0,0.0,0.0,0.0,0.0,0.0,0.0
1580877011512041675,73,1580877011511584043,,0.0151241027959,0.000323720943033,0.887934646289,0.459720807272,0.0,0.0,0.0,0.0,0.0,0.0,0.0,0.0,0.0,0.000414,-0.000187,-0.001115,0.0,0.0,0.0,0.0,0.0,0.0,0.0,0.0,0.0,-0.266,-0.138,-9.667,0.0,0.0,0.0,0.0,0.0,0.0,0.0,0.0,0.0
1580877011537748748,74,1580877011536853075,,0.0151200882165,0.000316104199134,0.887938660868,0.459713190528,0.0,0.0,0.0,0.0,0.0,0.0,0.0,0.0,0.0,-0.000984,-0.000533,0.001337,0.0,0.0,0.0,0.0,0.0,0.0,0.0,0.0,0.0,-0.259,-0.149,-9.65,0.0,0.0,0.0,0.0,0.0,0.0,0.0,0.0,0.0
1580877011563412678,75,1580877011562432050,,0.0151123402604,0.000320117442657,0.887938734725,0.459713299863,0.0,0.0,0.0,0.0,0.0,0.0,0.0,0.0,0.0,0.000219,-0.000251,-0.00053,0.0,0.0,0.0,0.0,0.0,0.0,0.0,0.0,0.0,-0.245,-0.157,-9.676,0.0,0.0,0.0,0.0,0.0,0.0,0.0,0.0,0.0
1580877011588083125,76,1580877011587558031,,0.0151163462906,0.000328129999947,0.887946755271,0.459697670441,0.0,0.0,0.0,0.0,0.0,0.0,0.0,0.0,0.0,0.001244,-0.000374,0.001309,0.0,0.0,0.0,0.0,0.0,0.0,0.0,0.0,0.0,-0.253,-0.133,-9.694,0.0,0.0,0.0,0.0,0.0,0.0,0.0,0.0,0.0
1580877011613668719,77,1580877011613063097,,0.0151200799357,0.000316500042009,0.887950695827,0.459689944191,0.0,0.0,0.0,0.0,0.0,0.0,0.0,0.0,0.0,0.000829,-0.000236,0.003059,0.0,0.0,0.0,0.0,0.0,0.0,0.0,0.0,0.0,-0.261,-0.15,-9.686,0.0,0.0,0.0,0.0,0.0,0.0,0.0,0.0,0.0
1580877011639002469,78,1580877011638570070,,0.0151238217608,0.00030447420988,0.887942601354,0.459705464413,0.0,0.0,0.0,0.0,0.0,0.0,0.0,0.0,0.0,-0.000719,-0.000731,-0.003453,0.0,0.0,0.0,0.0,0.0,0.0,0.0,0.0,0.0,-0.245,-0.126,-9.696,0.0,0.0,0.0,0.0,0.0,0.0,0.0,0.0,0.0
1580877011664226358,79,1580877011663753986,,0.0151163491535,0.000327998084928,0.887942743618,0.459705419221,0.0,0.0,0.0,0.0,0.0,0.0,0.0,0.0,0.0,0.001639,0.0007,0.000907,0.0,0.0,0.0,0.0,0.0,0.0,0.0,0.0,0.0,-0.253,-0.123,-9.673,0.0,0.0,0.0,0.0,0.0,0.0,0.0,0.0,0.0
1580877011689765795,80,1580877011689299106,,0.0151163434265,0.000328261914941,0.887950766856,0.459689921627,0.0,0.0,0.0,0.0,0.0,0.0,0.0,0.0,0.0,0.000107,0.00018,0.003054,0.0,0.0,0.0,0.0,0.0,0.0,0.0,0.0,0.0,-0.271,-0.144,-9.658,0.0,0.0,0.0,0.0,0.0,0.0,0.0,0.0,0.0
1580877011715087665,81,1580877011714674949,,0.0151318395456,0.000320235832266,0.887950619139,0.45968970279,0.0,0.0,0.0,0.0,0.0,0.0,0.0,0.0,0.0,0.00029,0.000315,0.001419,0.0,0.0,0.0,0.0,0.0,0.0,0.0,0.0,0.0,-0.26,-0.131,-9.675,0.0,0.0,0.0,0.0,0.0,0.0,0.0,0.0,0.0
1580877011740417672,82,1580877011739996910,,0.0151318339541,0.000320499932639,0.887958642103,0.459674205058,0.0,0.0,0.0,0.0,0.0,0.0,0.0,0.0,0.0,0.000197,-7.4e-05,0.001882,0.0,0.0,0.0,0.0,0.0,0.0,0.0,0.0,0.0,-0.249,-0.172,-9.664,0.0,0.0,0.0,0.0,0.0,0.0,0.0,0.0,0.0
1580877011766085307,83,1580877011765480995,,0.015108592465,0.000332406803596,0.887954852132,0.459682282142,0.0,0.0,0.0,0.0,0.0,0.0,0.0,0.0,0.0,-0.000874,0.001778,-0.001305,0.0,0.0,0.0,0.0,0.0,0.0,0.0,0.0,0.0,-0.235,-0.155,-9.653,0.0,0.0,0.0,0.0,0.0,0.0,0.0,0.0,0.0
1580877011791312992,84,1580877011790838956,,0.0151243665269,0.000343759579368,0.887950760992,0.459689657727,0.0,0.0,0.0,0.0,0.0,0.0,0.0,0.0,0.0,-0.000152,-6.8e-05,-0.000813,0.0,0.0,0.0,0.0,0.0,0.0,0.0,0.0,0.0,-0.266,-0.163,-9.686,0.0,0.0,0.0,0.0,0.0,0.0,0.0,0.0,0.0
1580877011816642785,85,1580877011816155910,,0.0151283811423,0.000351376391525,0.887946746376,0.459697274539,0.0,0.0,0.0,0.0,0.0,0.0,0.0,0.0,0.0,-0.000118,-0.000503,-0.003687,0.0,0.0,0.0,0.0,0.0,0.0,0.0,0.0,0.0,-0.269,-0.144,-9.687,0.0,0.0,0.0,0.0,0.0,0.0,0.0,0.0,0.0
1580877011841968109,86,1580877011841470003,,0.0151206269139,0.000355653407148,0.887954843125,0.459681886442,0.0,0.0,0.0,0.0,0.0,0.0,0.0,0.0,0.0,-0.000259,0.000435,0.002259,0.0,0.0,0.0,0.0,0.0,0.0,0.0,0.0,0.0,-0.254,-0.151,-9.684,0.0,0.0,0.0,0.0,0.0,0.0,0.0,0.0,0.0
1580877011867413719,87,1580877011866784095,,0.0151283780753,0.000351508411542,0.887950757958,0.459689525724,0.0,0.0,0.0,0.0,0.0,0.0,0.0,0.0,0.0,-0.000967,-0.000795,-0.003465,0.0,0.0,0.0,0.0,0.0,0.0,0.0,0.0,0.0,-0.255,-0.137,-9.687,0.0,0.0,0.0,0.0,0.0,0.0,0.0,0.0,0.0
1580877011893589612,88,1580877011893095970,,0.0151321116197,0.000339878589353,0.887954698751,0.459681799342,0.0,0.0,0.0,0.0,0.0,0.0,0.0,0.0,0.0,-0.000511,5.9e-05,0.00077,0.0,0.0,0.0,0.0,0.0,0.0,0.0,0.0,0.0,-0.267,-0.138,-9.654,0.0,0.0,0.0,0.0,0.0,0.0,0.0,0.0,0.0
1580877011918703347,89,1580877011917764902,,0.0151321205125,0.00033948243148,0.887942664006,0.459705045784,0.0,0.0,0.0,0.0,0.0,0.0,0.0,0.0,0.0,-0.000209,-0.001314,-0.004525,0.0,0.0,0.0,0.0,0.0,0.0,0.0,0.0,0.0,-0.255,-0.149,-9.675,0.0,0.0,0.0,0.0,0.0,0.0,0.0,0.0,0.0
1580877011943974004,90,1580877011943358898,,0.0151398743522,0.000335205013008,0.887934566685,0.459720433663,0.0,0.0,0.0,0.0,0.0,0.0,0.0,0.0,0.0,0.000559,7.5e-05,-0.004378,0.0,0.0,0.0,0.0,0.0,0.0,0.0,0.0,0.0,-0.264,-0.14,-9.701,0.0,0.0,0.0,0.0,0.0,0.0,0.0,0.0,0.0
1580877011970175833,91,1580877011969670057,,0.0151438771856,0.000343350169756,0.887946598871,0.459697055296,0.0,0.0,0.0,0.0,0.0,0.0,0.0,0.0,0.0,0.00052,0.000134,0.002582,0.0,0.0,0.0,0.0,0.0,0.0,0.0,0.0,0.0,-0.272,-0.138,-9.724,0.0,0.0,0.0,0.0,0.0,0.0,0.0,0.0,0.0
1580877011995819678,92,1580877011995404958,,0.0151361321952,0.000347231192995,0.887942661009,0.459704913714,0.0,0.0,0.0,0.0,0.0,0.0,0.0,0.0,0.0,3.3e-05,0.000549,0.000865,0.0,0.0,0.0,0.0,0.0,0.0,0.0,0.0,0.0,-0.258,-0.149,-9.684,0.0,0.0,0.0,0.0,0.0,0.0,0.0,0.0,0.0
1580877012020757656,93,1580877012020025014,,0.0151476135923,0.000331588263597,0.887946527945,0.459697077827,0.0,0.0,0.0,0.0,0.0,0.0,0.0,0.0,0.0,0.001082,-0.000774,0.002817,0.0,0.0,0.0,0.0,0.0,0.0,0.0,0.0,0.0,-0.264,-0.15,-9.657,0.0,0.0,0.0,0.0,0.0,0.0,0.0,0.0,0.0
1580877012045746255,94,1580877012045411109,,0.0151476106981,0.00033172045145,0.887950539525,0.459689329014,0.0,0.0,0.0,0.0,0.0,0.0,0.0,0.0,0.0,0.000234,-0.00012,0.002116,0.0,0.0,0.0,0.0,0.0,0.0,0.0,0.0,0.0,-0.261,-0.142,-9.682,0.0,0.0,0.0,0.0,0.0,0.0,0.0,0.0,0.0
1580877012071312910,95,1580877012070871114,,0.0151476049061,0.00033198482708,0.887958562482,0.459673831283,0.0,0.0,0.0,0.0,0.0,0.0,0.0,0.0,0.0,-0.000535,-0.000336,0.001369,0.0,0.0,0.0,0.0,0.0,0.0,0.0,0.0,0.0,-0.256,-0.135,-9.69,0.0,0.0,0.0,0.0,0.0,0.0,0.0,0.0,0.0
1580877012096476164,96,1580877012096112966,,0.0151553530309,0.00032797191962,0.887958488522,0.459673721644,0.0,0.0,0.0,0.0,0.0,0.0,0.0,0.0,0.0,0.000644,0.000232,-0.000157,0.0,0.0,0.0,0.0,0.0,0.0,0.0,0.0,0.0,-0.249,-0.136,-9.653,0.0,0.0,0.0,0.0,0.0,0.0,0.0,0.0,0.0
1580877012121775263,97,1580877012121264934,,0.0151553558925,0.000327839664203,0.887954477079,0.459681470526,0.0,0.0,0.0,0.0,0.0,0.0,0.0,0.0,0.0,0.000327,-0.000106,-0.002889,0.0,0.0,0.0,0.0,0.0,0.0,0.0,0.0,0.0,-0.26,-0.148,-9.68,0.0,0.0,0.0,0.0,0.0,0.0,0.0,0.0,0.0
1580877012146975552,98,1580877012146554946,,0.0151671241326,0.000331178478792,0.887942365462,0.459704474944,0.0,0.0,0.0,0.0,0.0,0.0,0.0,0.0,0.0,-0.000894,-0.001069,-0.003124,0.0,0.0,0.0,0.0,0.0,0.0,0.0,0.0,0.0,-0.269,-0.132,-9.685,0.0,0.0,0.0,0.0,0.0,0.0,0.0,0.0,0.0
1580877012172400520,99,1580877012171947002,,0.0151671270221,0.000331046120653,0.88793835375,0.459712223686,0.0,0.0,0.0,0.0,0.0,0.0,0.0,0.0,0.0,-3e-06,0.00112,-0.002013,0.0,0.0,0.0,0.0,0.0,0.0,0.0,0.0,0.0,-0.252,-0.131,-9.672,0.0,0.0,0.0,0.0,0.0,0.0,0.0,0.0,0.0
1580877012198504479,100,1580877012197535991,,0.0151631124536,0.000323429719857,0.887942368318,0.459704607285,0.0,0.0,0.0,0.0,0.0,0.0,0.0,0.0,0.0,0.000431,-0.00087,0.003021,0.0,0.0,0.0,0.0,0.0,0.0,0.0,0.0,0.0,-0.26,-0.121,-9.691,0.0,0.0,0.0,0.0,0.0,0.0,0.0,0.0,0.0
1580877012223133703,101,1580877012222716093,,0.0151631180963,0.000323165073571,0.887934344824,0.459720104733,0.0,0.0,0.0,0.0,0.0,0.0,0.0,0.0,0.0,-0.00055,-0.000618,-0.003533,0.0,0.0,0.0,0.0,0.0,0.0,0.0,0.0,0.0,-0.226,-0.14,-9.649,0.0,0.0,0.0,0.0,0.0,0.0,0.0,0.0,0.0
1580877012249109730,102,1580877012248246908,,0.0151553730373,0.000327046131175,0.887930406996,0.459727963084,0.0,0.0,0.0,0.0,0.0,0.0,0.0,0.0,0.0,-8.6e-05,-0.000888,-0.004238,0.0,0.0,0.0,0.0,0.0,0.0,0.0,0.0,0.0,-0.26,-0.143,-9.658,0.0,0.0,0.0,0.0,0.0,0.0,0.0,0.0,0.0
1580877012273514949,103,1580877012273060083,,0.015159390761,0.000334530204497,0.887922380209,0.45974332805,0.0,0.0,0.0,0.0,0.0,0.0,0.0,0.0,0.0,0.000961,-0.000492,-0.003086,0.0,0.0,0.0,0.0,0.0,0.0,0.0,0.0,0.0,-0.246,-0.148,-9.693,0.0,0.0,0.0,0.0,0.0,0.0,0.0,0.0,0.0
1580877012299608118,104,1580877012298918962,,0.0151593965974,0.000334265623165,0.887914356039,0.459758825149,0.0,0.0,0.0,0.0,0.0,0.0,0.0,0.0,0.0,-0.000141,0.000661,-0.003344,0.0,0.0,0.0,0.0,0.0,0.0,0.0,0.0,0.0,-0.239,-0.142,-9.669,0.0,0.0,0.0,0.0,0.0,0.0,0.0,0.0,0.0
1580877012324538232,105,1580877012324028015,,0.0151593965974,0.000334265623165,0.887914356039,0.459758825149,0.0,0.0,0.0,0.0,0.0,0.0,0.0,0.0,0.0,0.000418,0.000703,0.001401,0.0,0.0,0.0,0.0,0.0,0.0,0.0,0.0,0.0,-0.248,-0.134,-9.663,0.0,0.0,0.0,0.0,0.0,0.0,0.0,0.0,0.0
1580877012349952066,106,1580877012349443912,,0.015159390761,0.000334530204497,0.887922380209,0.45974332805,0.0,0.0,0.0,0.0,0.0,0.0,0.0,0.0,0.0,0.000358,4.8e-05,0.003243,0.0,0.0,0.0,0.0,0.0,0.0,0.0,0.0,0.0,-0.254,-0.145,-9.697,0.0,0.0,0.0,0.0,0.0,0.0,0.0,0.0,0.0
1580877012375192555,107,1580877012374588966,,0.0151711564859,0.000338000485122,0.887914279141,0.459758583023,0.0,0.0,0.0,0.0,0.0,0.0,0.0,0.0,0.0,0.000609,-0.000913,-0.003202,0.0,0.0,0.0,0.0,0.0,0.0,0.0,0.0,0.0,-0.236,-0.141,-9.639,0.0,0.0,0.0,0.0,0.0,0.0,0.0,0.0,0.0
1580877012400348590,108,1580877012399972915,,0.0151634176981,0.000341617160416,0.887902316329,0.459781938226,0.0,0.0,0.0,0.0,0.0,0.0,0.0,0.0,0.0,0.000104,-0.000839,-0.002035,0.0,0.0,0.0,0.0,0.0,0.0,0.0,0.0,0.0,-0.255,-0.153,-9.669,0.0,0.0,0.0,0.0,0.0,0.0,0.0,0.0,0.0
1580877012425388961,109,1580877012425024986,,0.0151634117335,0.000341881811929,0.887910340902,0.459766441337,0.0,0.0,0.0,0.0,0.0,0.0,0.0,0.0,0.0,0.000124,0.000136,0.004129,0.0,0.0,0.0,0.0,0.0,0.0,0.0,0.0,0.0,-0.272,-0.153,-9.648,0.0,0.0,0.0,0.0,0.0,0.0,0.0,0.0,0.0
1580877012451029057,110,1580877012450360059,,0.0151829133874,0.000341867841663,0.887918214293,0.459750592162,0.0,0.0,0.0,0.0,0.0,0.0,0.0,0.0,0.0,0.000868,0.000329,0.001629,0.0,0.0,0.0,0.0,0.0,0.0,0.0,0.0,0.0,-0.236,-0.13,-9.661,0.0,0.0,0.0,0.0,0.0,0.0,0.0,0.0,0.0
1580877012477055777,111,1580877012476495981,,0.0151751625991,0.000346013855536,0.887922300321,0.459742953515,0.0,0.0,0.0,0.0,0.0,0.0,0.0,0.0,0.0,0.001244,-0.000462,0.002004,0.0,0.0,0.0,0.0,0.0,0.0,0.0,0.0,0.0,-0.255,-0.142,-9.651,0.0,0.0,0.0,0.0,0.0,0.0,0.0,0.0,0.0
1580877012502572099,112,1580877012502068996,,0.0151869315673,0.000349351327908,0.887910186982,0.459765956675,0.0,0.0,0.0,0.0,0.0,0.0,0.0,0.0,0.0,0.000482,-0.001545,-0.003155,0.0,0.0,0.0,0.0,0.0,0.0,0.0,0.0,0.0,-0.244,-0.145,-9.679,0.0,0.0,0.0,0.0,0.0,0.0,0.0,0.0,0.0
1580877012528025014,113,1580877012527146100,,0.0151789013061,0.000334119293486,0.887918217243,0.459750724641,0.0,0.0,0.0,0.0,0.0,0.0,0.0,0.0,0.0,-0.00136,0.000489,0.00143,0.0,0.0,0.0,0.0,0.0,0.0,0.0,0.0,0.0,-0.264,-0.147,-9.636,0.0,0.0,0.0,0.0,0.0,0.0,0.0,0.0,0.0
1580877012552487764,114,1580877012552046060,,0.0151671385685,0.000330516687842,0.887922306225,0.459743218301,0.0,0.0,0.0,0.0,0.0,0.0,0.0,0.0,0.0,-0.000317,-0.000538,0.003499,0.0,0.0,0.0,0.0,0.0,0.0,0.0,0.0,0.0,-0.252,-0.141,-9.704,0.0,0.0,0.0,0.0,0.0,0.0,0.0,0.0,0.0
1580877012579417544,115,1580877012579019069,,0.0151516488588,0.000338279275018,0.887914429952,0.459758934863,0.0,0.0,0.0,0.0,0.0,0.0,0.0,0.0,0.0,-0.000859,0.000225,-0.002796,0.0,0.0,0.0,0.0,0.0,0.0,0.0,0.0,0.0,-0.258,-0.129,-9.654,0.0,0.0,0.0,0.0,0.0,0.0,0.0,0.0,0.0
1580877012603435926,116,1580877012602983951,,0.0151516518102,0.000338147051926,0.887910417765,0.45976668336,0.0,0.0,0.0,0.0,0.0,0.0,0.0,0.0,0.0,0.000342,0.000111,-0.002738,0.0,0.0,0.0,0.0,0.0,0.0,0.0,0.0,0.0,-0.268,-0.148,-9.686,0.0,0.0,0.0,0.0,0.0,0.0,0.0,0.0,0.0
1580877012629771636,117,1580877012629374027,,0.0151594053432,0.000333868750975,0.887902319276,0.459782070534,0.0,0.0,0.0,0.0,0.0,0.0,0.0,0.0,0.0,-0.001187,-0.000537,-0.003853,0.0,0.0,0.0,0.0,0.0,0.0,0.0,0.0,0.0,-0.243,-0.127,-9.676,0.0,0.0,0.0,0.0,0.0,0.0,0.0,0.0,0.0
1580877012654383740,118,1580877012653808116,,0.0151436301806,0.000322517938531,0.887906411274,0.459774696199,0.0,0.0,0.0,0.0,0.0,0.0,0.0,0.0,0.0,-0.000524,2.2e-05,0.000441,0.0,0.0,0.0,0.0,0.0,0.0,0.0,0.0,0.0,-0.29,-0.104,-9.679,0.0,0.0,0.0,0.0,0.0,0.0,0.0,0.0,0.0
1580877012679571512,119,1580877012679177999,,0.0151591282642,0.000314358078596,0.88790225092,0.45978222543,0.0,0.0,0.0,0.0,0.0,0.0,0.0,0.0,0.0,0.001132,-0.001428,0.000483,0.0,0.0,0.0,0.0,0.0,0.0,0.0,0.0,0.0,-0.246,-0.152,-9.675,0.0,0.0,0.0,0.0,0.0,0.0,0.0,0.0,0.0
1580877012704730637,120,1580877012704346895,,0.0151551105531,0.000306874176352,0.88791027821,0.459766860813,0.0,0.0,0.0,0.0,0.0,0.0,0.0,0.0,0.0,0.000523,0.000503,0.00391,0.0,0.0,0.0,0.0,0.0,0.0,0.0,0.0,0.0,-0.232,-0.134,-9.642,0.0,0.0,0.0,0.0,0.0,0.0,0.0,0.0,0.0
1580877012730141940,121,1580877012729734897,,0.0151473547036,0.00031128445083,0.887922388662,0.459743724764,0.0,0.0,0.0,0.0,0.0,0.0,0.0,0.0,0.0,-0.001646,0.000151,0.002884,0.0,0.0,0.0,0.0,0.0,0.0,0.0,0.0,0.0,-0.236,-0.159,-9.669,0.0,0.0,0.0,0.0,0.0,0.0,0.0,0.0,0.0
1580877012755649487,122,1580877012755084037,,0.0151436217319,0.000322914397731,0.887918447843,0.459751450706,0.0,0.0,0.0,0.0,0.0,0.0,0.0,0.0,0.0,-0.000112,0.000327,-0.004112,0.0,0.0,0.0,0.0,0.0,0.0,0.0,0.0,0.0,-0.276,-0.141,-9.704,0.0,0.0,0.0,0.0,0.0,0.0,0.0,0.0,0.0
1580877012781424344,123,1580877012780553102,,0.0151358768076,0.000326795895227,0.887914509638,0.459759308783,0.0,0.0,0.0,0.0,0.0,0.0,0.0,0.0,0.0,0.000244,0.000383,0.001535,0.0,0.0,0.0,0.0,0.0,0.0,0.0,0.0,0.0,-0.257,-0.16,-9.693,0.0,0.0,0.0,0.0,0.0,0.0,0.0,0.0,0.0
1580877012806329821,124,1580877012805711030,,0.0151398918828,0.000334412290581,0.887910494562,0.459766925178,0.0,0.0,0.0,0.0,0.0,0.0,0.0,0.0,0.0,0.001012,-0.000235,-0.002393,0.0,0.0,0.0,0.0,0.0,0.0,0.0,0.0,0.0,-0.25,-0.144,-9.64,0.0,0.0,0.0,0.0,0.0,0.0,0.0,0.0,0.0
1580877012831570002,125,1580877012831132888,,0.0151476367046,0.000330530759866,0.887914432871,0.459759067068,0.0,0.0,0.0,0.0,0.0,0.0,0.0,0.0,0.0,5e-06,-0.000202,0.001818,0.0,0.0,0.0,0.0,0.0,0.0,0.0,0.0,0.0,-0.253,-0.14,-9.681,0.0,0.0,0.0,0.0,0.0,0.0,0.0,0.0,0.0
1580877012857416602,126,1580877012856694936,,0.0151593995138,0.00033413333246,0.887910343852,0.459766573646,0.0,0.0,0.0,0.0,0.0,0.0,0.0,0.0,0.0,0.000363,0.000494,-0.003058,0.0,0.0,0.0,0.0,0.0,0.0,0.0,0.0,0.0,-0.268,-0.145,-9.677,0.0,0.0,0.0,0.0,0.0,0.0,0.0,0.0,0.0
1580877012882344127,127,1580877012881679058,,0.0151711564859,0.000338000485122,0.887914279141,0.459758583023,0.0,0.0,0.0,0.0,0.0,0.0,0.0,0.0,0.0,0.001416,0.000441,0.00302,0.0,0.0,0.0,0.0,0.0,0.0,0.0,0.0,0.0,-0.27,-0.147,-9.678,0.0,0.0,0.0,0.0,0.0,0.0,0.0,0.0,0.0
1580877012907688333,128,1580877012907191991,,0.0151789071352,0.000333854371631,0.887910192944,0.459766221667,0.0,0.0,0.0,0.0,0.0,0.0,0.0,0.0,0.0,0.00048,-0.000743,-0.00043,0.0,0.0,0.0,0.0,0.0,0.0,0.0,0.0,0.0,-0.258,-0.133,-9.669,0.0,0.0,0.0,0.0,0.0,0.0,0.0,0.0,0.0
1580877012933244611,129,1580877012932595014,,0.0151671443348,0.000330251971286,0.887914282057,0.459758715399,0.0,0.0,0.0,0.0,0.0,0.0,0.0,0.0,0.0,-0.001089,0.000342,0.002046,0.0,0.0,0.0,0.0,0.0,0.0,0.0,0.0,0.0,-0.277,-0.135,-9.673,0.0,0.0,0.0,0.0,0.0,0.0,0.0,0.0,0.0
1580877012958846083,130,1580877012958193063,,0.0151671443348,0.000330251971286,0.887914282057,0.459758715399,0.0,0.0,0.0,0.0,0.0,0.0,0.0,0.0,0.0,-0.000557,0.0003,-0.000295,0.0,0.0,0.0,0.0,0.0,0.0,0.0,0.0,0.0,-0.271,-0.134,-9.694,0.0,0.0,0.0,0.0,0.0,0.0,0.0,0.0,0.0
1580877012984372106,131,1580877012983931064,,0.0151711505844,0.000338265271702,0.887922303307,0.459743085926,0.0,0.0,0.0,0.0,0.0,0.0,0.0,0.0,0.0,-0.000229,0.000517,0.001462,0.0,0.0,0.0,0.0,0.0,0.0,0.0,0.0,0.0,-0.247,-0.149,-9.644,0.0,0.0,0.0,0.0,0.0,0.0,0.0,0.0,0.0
1580877013008796973,132,1580877013008342981,,0.0151711564859,0.000338000485122,0.887914279141,0.459758583023,0.0,0.0,0.0,0.0,0.0,0.0,0.0,0.0,0.0,-0.000607,0.000971,-0.003526,0.0,0.0,0.0,0.0,0.0,0.0,0.0,0.0,0.0,-0.266,-0.118,-9.684,0.0,0.0,0.0,0.0,0.0,0.0,0.0,0.0,0.0
1580877013034364060,133,1580877013033869981,,0.0151789013061,0.000334119293486,0.887918217243,0.459750724641,0.0,0.0,0.0,0.0,0.0,0.0,0.0,0.0,0.0,-0.000231,0.000926,-0.001323,0.0,0.0,0.0,0.0,0.0,0.0,0.0,0.0,0.0,-0.251,-0.153,-9.675,0.0,0.0,0.0,0.0,0.0,0.0,0.0,0.0,0.0
1580877013059588394,134,1580877013059084892,,0.0151711594349,0.000337868091793,0.887910266957,0.45976633152,0.0,0.0,0.0,0.0,0.0,0.0,0.0,0.0,0.0,0.000331,-7.7e-05,-0.002296,0.0,0.0,0.0,0.0,0.0,0.0,0.0,0.0,0.0,-0.241,-0.159,-9.668,0.0,0.0,0.0,0.0,0.0,0.0,0.0,0.0,0.0
1580877013084513099,135,1580877013084108114,,0.0151636821589,0.000361657148422,0.887918432908,0.459750789503,0.0,0.0,0.0,0.0,0.0,0.0,0.0,0.0,0.0,1.3e-05,0.000994,0.002694,0.0,0.0,0.0,0.0,0.0,0.0,0.0,0.0,0.0,-0.233,-0.136,-9.658,0.0,0.0,0.0,0.0,0.0,0.0,0.0,0.0,0.0
1580877013109750771,136,1580877013109426021,,0.0151519160537,0.000358186634718,0.887926533842,0.459735534456,0.0,0.0,0.0,0.0,0.0,0.0,0.0,0.0,0.0,0.000838,0.001112,0.003548,0.0,0.0,0.0,0.0,0.0,0.0,0.0,0.0,0.0,-0.252,-0.117,-9.666,0.0,0.0,0.0,0.0,0.0,0.0,0.0,0.0,0.0
1580877013135897417,137,1580877013135160923,,0.015148170469,0.000370345284668,0.887938639902,0.459712266037,0.0,0.0,0.0,0.0,0.0,0.0,0.0,0.0,0.0,0.001425,0.001184,0.002785,0.0,0.0,0.0,0.0,0.0,0.0,0.0,0.0,0.0,-0.27,-0.129,-9.675,0.0,0.0,0.0,0.0,0.0,0.0,0.0,0.0,0.0
1580877013160441399,138,1580877013160038948,,0.0151519129274,0.000358318860116,0.887930545757,0.459727785818,0.0,0.0,0.0,0.0,0.0,0.0,0.0,0.0,0.0,-0.000346,0.000111,-0.004632,0.0,0.0,0.0,0.0,0.0,0.0,0.0,0.0,0.0,-0.241,-0.132,-9.676,0.0,0.0,0.0,0.0,0.0,0.0,0.0,0.0,0.0
1580877013185657591,139,1580877013185286045,,0.015155934387,0.00036567073457,0.887918506651,0.459750899385,0.0,0.0,0.0,0.0,0.0,0.0,0.0,0.0,0.0,-1e-05,-0.000351,-0.004194,0.0,0.0,0.0,0.0,0.0,0.0,0.0,0.0,0.0,-0.256,-0.147,-9.672,0.0,0.0,0.0,0.0,0.0,0.0,0.0,0.0,0.0
1580877013210741294,140,1580877013210380077,,0.0151519160537,0.000358186634718,0.887926533842,0.459735534456,0.0,0.0,0.0,0.0,0.0,0.0,0.0,0.0,0.0,0.000644,5e-05,0.002593,0.0,0.0,0.0,0.0,0.0,0.0,0.0,0.0,0.0,-0.267,-0.135,-9.658,0.0,0.0,0.0,0.0,0.0,0.0,0.0,0.0,0.0
1580877013236042789,141,1580877013235676050,,0.0151519129274,0.000358318860116,0.887930545757,0.459727785818,0.0,0.0,0.0,0.0,0.0,0.0,0.0,0.0,0.0,0.00064,-0.00076,0.002859,0.0,0.0,0.0,0.0,0.0,0.0,0.0,0.0,0.0,-0.266,-0.139,-9.674,0.0,0.0,0.0,0.0,0.0,0.0,0.0,0.0,0.0
1580877013261433691,142,1580877013261065006,,0.0151596638966,0.000354173184439,0.887926460063,0.459735424644,0.0,0.0,0.0,0.0,0.0,0.0,0.0,0.0,0.0,-0.000359,4.9e-05,-0.002846,0.0,0.0,0.0,0.0,0.0,0.0,0.0,0.0,0.0,-0.243,-0.115,-9.708,0.0,0.0,0.0,0.0,0.0,0.0,0.0,0.0,0.0
1580877013286718265,143,1580877013286343097,,0.0151519223029,0.000357922183841,0.887918509808,0.459751031628,0.0,0.0,0.0,0.0,0.0,0.0,0.0,0.0,0.0,0.00152,0.001223,-0.003222,0.0,0.0,0.0,0.0,0.0,0.0,0.0,0.0,0.0,-0.275,-0.134,-9.685,0.0,0.0,0.0,0.0,0.0,0.0,0.0,0.0,0.0
1580877013311883814,144,1580877013311522960,,0.0151636790022,0.000361789476498,0.887922444957,0.459743040936,0.0,0.0,0.0,0.0,0.0,0.0,0.0,0.0,0.0,0.001373,0.000248,0.00049,0.0,0.0,0.0,0.0,0.0,0.0,0.0,0.0,0.0,-0.27,-0.137,-9.664,0.0,0.0,0.0,0.0,0.0,0.0,0.0,0.0,0.0
1580877013337064284,145,1580877013336673974,,0.0151714236852,0.000357908353596,0.887926383126,0.459735182418,0.0,0.0,0.0,0.0,0.0,0.0,0.0,0.0,0.0,-0.000206,-0.000429,0.00097,0.0,0.0,0.0,0.0,0.0,0.0,0.0,0.0,0.0,-0.253,-0.138,-9.632,0.0,0.0,0.0,0.0,0.0,0.0,0.0,0.0,0.0
1580877013362378549,146,1580877013361963033,,0.0151714330501,0.00035751116653,0.887914346983,0.459758428119,0.0,0.0,0.0,0.0,0.0,0.0,0.0,0.0,0.0,0.000675,-0.000125,-0.00273,0.0,0.0,0.0,0.0,0.0,0.0,0.0,0.0,0.0,-0.25,-0.129,-9.668,0.0,0.0,0.0,0.0,0.0,0.0,0.0,0.0,0.0
1580877013387814796,147,1580877013387423038,,0.0151754483856,0.000365127250176,0.887910331648,0.459766044203,0.0,0.0,0.0,0.0,0.0,0.0,0.0,0.0,0.0,-0.000774,0.000147,0.000955,0.0,0.0,0.0,0.0,0.0,0.0,0.0,0.0,0.0,-0.261,-0.144,-9.673,0.0,0.0,0.0,0.0,0.0,0.0,0.0,0.0,0.0
1580877013412847865,148,1580877013412532091,,0.0151754547559,0.000364862388581,0.887902307081,0.459781541091,0.0,0.0,0.0,0.0,0.0,0.0,0.0,0.0,0.0,0.000726,-0.000967,-0.00232,0.0,0.0,0.0,0.0,0.0,0.0,0.0,0.0,0.0,-0.258,-0.133,-9.657,0.0,0.0,0.0,0.0,0.0,0.0,0.0,0.0,0.0
1580877013438112392,149,1580877013437784910,,0.015155943955,0.00036527395301,0.887906470096,0.45977414488,0.0,0.0,0.0,0.0,0.0,0.0,0.0,0.0,0.0,-0.00024,0.000109,0.000106,0.0,0.0,0.0,0.0,0.0,0.0,0.0,0.0,0.0,-0.262,-0.147,-9.656,0.0,0.0,0.0,0.0,0.0,0.0,0.0,0.0,0.0
1580877013463819014,150,1580877013463464021,,0.0151636947739,0.000361127835841,0.887902384037,0.459781783424,0.0,0.0,0.0,0.0,0.0,0.0,0.0,0.0,0.0,-3.6e-05,-0.001633,0.002007,0.0,0.0,0.0,0.0,0.0,0.0,0.0,0.0,0.0,-0.262,-0.118,-9.668,0.0,0.0,0.0,0.0,0.0,0.0,0.0,0.0,0.0
1580877013488728770,151,1580877013488373041,,0.0151519285476,0.000357657732854,0.887910485503,0.459766528659,0.0,0.0,0.0,0.0,0.0,0.0,0.0,0.0,0.0,-0.000489,0.000246,0.002079,0.0,0.0,0.0,0.0,0.0,0.0,0.0,0.0,0.0,-0.249,-0.144,-9.67,0.0,0.0,0.0,0.0,0.0,0.0,0.0,0.0,0.0
1580877013513913358,152,1580877013513602018,,0.0151519347875,0.000357393281758,0.887902460928,0.459782025551,0.0,0.0,0.0,0.0,0.0,0.0,0.0,0.0,0.0,-8.4e-05,-0.000791,-0.00295,0.0,0.0,0.0,0.0,0.0,0.0,0.0,0.0,0.0,-0.263,-0.138,-9.681,0.0,0.0,0.0,0.0,0.0,0.0,0.0,0.0,0.0
1580877013539142500,153,1580877013538822889,,0.0151519379058,0.00035726105617,0.887898448539,0.459789773944,0.0,0.0,0.0,0.0,0.0,0.0,0.0,0.0,0.0,0.000489,-0.000763,0.000967,0.0,0.0,0.0,0.0,0.0,0.0,0.0,0.0,0.0,-0.262,-0.151,-9.696,0.0,0.0,0.0,0.0,0.0,0.0,0.0,0.0,0.0
1580877013564397177,154,1580877013564078092,,0.0151599562408,0.000373022398672,0.887906466874,0.459774012602,0.0,0.0,0.0,0.0,0.0,0.0,0.0,0.0,0.0,0.001445,-5.2e-05,-0.000678,0.0,0.0,0.0,0.0,0.0,0.0,0.0,0.0,0.0,-0.254,-0.116,-9.679,0.0,0.0,0.0,0.0,0.0,0.0,0.0,0.0,0.0
1580877013589505638,155,1580877013589189052,,0.0151519379058,0.00035726105617,0.887898448539,0.459789773944,0.0,0.0,0.0,0.0,0.0,0.0,0.0,0.0,0.0,-0.00027,-0.001132,-0.003049,0.0,0.0,0.0,0.0,0.0,0.0,0.0,0.0,0.0,-0.251,-0.153,-9.697,0.0,0.0,0.0,0.0,0.0,0.0,0.0,0.0,0.0
1580877013615769692,156,1580877013615466117,,0.0151637073704,0.00036059852282,0.887886334085,0.459812776784,0.0,0.0,0.0,0.0,0.0,0.0,0.0,0.0,0.0,7e-06,-0.000962,-0.003018,0.0,0.0,0.0,0.0,0.0,0.0,0.0,0.0,0.0,-0.259,-0.123,-9.682,0.0,0.0,0.0,0.0,0.0,0.0,0.0,0.0,0.0
1580877013641052174,157,1580877013640705108,,0.0151596885856,0.000353114839383,0.887894362311,0.459797412484,0.0,0.0,0.0,0.0,0.0,0.0,0.0,0.0,0.0,0.000915,0.000364,0.002529,0.0,0.0,0.0,0.0,0.0,0.0,0.0,0.0,0.0,-0.266,-0.134,-9.645,0.0,0.0,0.0,0.0,0.0,0.0,0.0,0.0,0.0
1580877013666255644,158,1580877013665939092,,0.0151519441389,0.000356996604911,0.887890423559,0.459805270625,0.0,0.0,0.0,0.0,0.0,0.0,0.0,0.0,0.0,0.001322,0.000229,-0.002102,0.0,0.0,0.0,0.0,0.0,0.0,0.0,0.0,0.0,-0.253,-0.168,-9.688,0.0,0.0,0.0,0.0,0.0,0.0,0.0,0.0,0.0
1580877013691967732,159,1580877013691540956,,0.0151519379058,0.00035726105617,0.887898448539,0.459789773944,0.0,0.0,0.0,0.0,0.0,0.0,0.0,0.0,0.0,-0.000487,-0.001486,0.001163,0.0,0.0,0.0,0.0,0.0,0.0,0.0,0.0,0.0,-0.24,-0.14,-9.676,0.0,0.0,0.0,0.0,0.0,0.0,0.0,0.0,0.0
1580877013717068006,160,1580877013716658115,,0.01514820273,0.000369023356008,0.887898519058,0.459789751551,0.0,0.0,0.0,0.0,0.0,0.0,0.0,0.0,0.0,-0.00108,-0.000143,0.002966,0.0,0.0,0.0,0.0,0.0,0.0,0.0,0.0,0.0,-0.275,-0.142,-9.637,0.0,0.0,0.0,0.0,0.0,0.0,0.0,0.0,0.0
1580877013742273693,161,1580877013741645097,,0.0151441871536,0.000361407137681,0.887902534634,0.459782135332,0.0,0.0,0.0,0.0,0.0,0.0,0.0,0.0,0.0,0.000639,0.000234,0.001366,0.0,0.0,0.0,0.0,0.0,0.0,0.0,0.0,0.0,-0.273,-0.127,-9.655,0.0,0.0,0.0,0.0,0.0,0.0,0.0,0.0,0.0
1580877013767382385,162,1580877013766870975,,0.01514820273,0.000369023356008,0.887898519058,0.459789751551,0.0,0.0,0.0,0.0,0.0,0.0,0.0,0.0,0.0,0.000457,-0.000415,-0.003475,0.0,0.0,0.0,0.0,0.0,0.0,0.0,0.0,0.0,-0.274,-0.144,-9.678,0.0,0.0,0.0,0.0,0.0,0.0,0.0,0.0,0.0
1580877013793031661,163,1580877013792506933,,0.015155950328,0.000365009431831,0.887898445388,0.459789641701,0.0,0.0,0.0,0.0,0.0,0.0,0.0,0.0,0.0,-3.9e-05,0.00055,0.000565,0.0,0.0,0.0,0.0,0.0,0.0,0.0,0.0,0.0,-0.277,-0.132,-9.659,0.0,0.0,0.0,0.0,0.0,0.0,0.0,0.0,0.0
1580877013818199015,164,1580877013817723035,,0.0151596885856,0.000353114839383,0.887894362311,0.459797412484,0.0,0.0,0.0,0.0,0.0,0.0,0.0,0.0,0.0,-0.000487,-0.000998,-0.003541,0.0,0.0,0.0,0.0,0.0,0.0,0.0,0.0,0.0,-0.253,-0.139,-9.685,0.0,0.0,0.0,0.0,0.0,0.0,0.0,0.0,0.0
1580877013843865863,165,1580877013843518018,,0.0151519441389,0.000356996604911,0.887890423559,0.459805270625,0.0,0.0,0.0,0.0,0.0,0.0,0.0,0.0,0.0,0.000731,-0.000862,0.000187,0.0,0.0,0.0,0.0,0.0,0.0,0.0,0.0,0.0,-0.244,-0.128,-9.685,0.0,0.0,0.0,0.0,0.0,0.0,0.0,0.0,0.0
1580877013868245440,166,1580877013867871046,,0.0151519472537,0.00035686437924,0.887886410967,0.459813018913,0.0,0.0,0.0,0.0,0.0,0.0,0.0,0.0,0.0,-0.000203,0.00033,-0.004183,0.0,0.0,0.0,0.0,0.0,0.0,0.0,0.0,0.0,-0.253,-0.146,-9.655,0.0,0.0,0.0,0.0,0.0,0.0,0.0,0.0,0.0
1580877013893419979,167,1580877013893018960,,0.0151404713934,0.000372376652821,0.887878529697,0.459828602812,0.0,0.0,0.0,0.0,0.0,0.0,0.0,0.0,0.0,0.000762,0.000182,-0.000375,0.0,0.0,0.0,0.0,0.0,0.0,0.0,0.0,0.0,-0.238,-0.147,-9.674,0.0,0.0,0.0,0.0,0.0,0.0,0.0,0.0,0.0
1580877013918610239,168,1580877013918195962,,0.0151364586312,0.000364628450956,0.887878532913,0.45982873492,0.0,0.0,0.0,0.0,0.0,0.0,0.0,0.0,0.0,-0.00081,-0.001291,0.002394,0.0,0.0,0.0,0.0,0.0,0.0,0.0,0.0,0.0,-0.265,-0.139,-9.645,0.0,0.0,0.0,0.0,0.0,0.0,0.0,0.0,0.0
1580877013943925199,169,1580877013943523883,,0.0151479437622,0.000348719536479,0.887874375863,0.459836395776,0.0,0.0,0.0,0.0,0.0,0.0,0.0,0.0,0.0,-0.000659,-0.001706,-0.001319,0.0,0.0,0.0,0.0,0.0,0.0,0.0,0.0,0.0,-0.256,-0.121,-9.661,0.0,0.0,0.0,0.0,0.0,0.0,0.0,0.0,0.0
1580877013969863304,170,1580877013969480037,,0.0151479376736,0.000348983917919,0.887882401387,0.459820899375,0.0,0.0,0.0,0.0,0.0,0.0,0.0,0.0,0.0,-0.000334,-0.001575,0.003898,0.0,0.0,0.0,0.0,0.0,0.0,0.0,0.0,0.0,-0.247,-0.154,-9.658,0.0,0.0,0.0,0.0,0.0,0.0,0.0,0.0,0.0
1580877013994202117,171,1580877013993807077,,0.0151404616394,0.000372773029307,0.887890567678,0.459805358049,0.0,0.0,0.0,0.0,0.0,0.0,0.0,0.0,0.0,-3.9e-05,0.000305,0.002265,0.0,0.0,0.0,0.0,0.0,0.0,0.0,0.0,0.0,-0.237,-0.137,-9.709,0.0,0.0,0.0,0.0,0.0,0.0,0.0,0.0,0.0
1580877014019827376,172,1580877014019522905,,0.0151404583858,0.000372905154746,0.887894580203,0.459797609725,0.0,0.0,0.0,0.0,0.0,0.0,0.0,0.0,0.0,0.000938,0.000234,0.003217,0.0,0.0,0.0,0.0,0.0,0.0,0.0,0.0,0.0,-0.249,-0.142,-9.687,0.0,0.0,0.0,0.0,0.0,0.0,0.0,0.0,0.0
1580877014047106877,173,1580877014046698093,,0.0151367266683,0.000384535396177,0.887890637888,0.459805335755,0.0,0.0,0.0,0.0,0.0,0.0,0.0,0.0,0.0,-2.2e-05,0.000394,-0.001161,0.0,0.0,0.0,0.0,0.0,0.0,0.0,0.0,0.0,-0.247,-0.163,-9.648,0.0,0.0,0.0,0.0,0.0,0.0,0.0,0.0,0.0
1580877014070777048,174,1580877014070409059,,0.015128979138,0.00038854945613,0.887890711318,0.459805445568,0.0,0.0,0.0,0.0,0.0,0.0,0.0,0.0,0.0,0.000521,0.001236,0.000838,0.0,0.0,0.0,0.0,0.0,0.0,0.0,0.0,0.0,-0.27,-0.141,-9.676,0.0,0.0,0.0,0.0,0.0,0.0,0.0,0.0,0.0
1580877014094964487,175,1580877014094594001,,0.015140742649,0.000392151575786,0.887886621908,0.459812951934,0.0,0.0,0.0,0.0,0.0,0.0,0.0,0.0,0.0,0.000836,0.000706,-0.004679,0.0,0.0,0.0,0.0,0.0,0.0,0.0,0.0,0.0,-0.253,-0.129,-9.666,0.0,0.0,0.0,0.0,0.0,0.0,0.0,0.0,0.0
1580877014121532942,176,1580877014120969057,,0.0151370148273,0.000403649786397,0.887878666426,0.459828426214,0.0,0.0,0.0,0.0,0.0,0.0,0.0,0.0,0.0,0.000285,5.4e-05,-0.00353,0.0,0.0,0.0,0.0,0.0,0.0,0.0,0.0,0.0,-0.258,-0.148,-9.656,0.0,0.0,0.0,0.0,0.0,0.0,0.0,0.0,0.0
1580877014146294820,177,1580877014145935058,,0.0151487714535,0.000407515922708,0.887882602272,0.459820435863,0.0,0.0,0.0,0.0,0.0,0.0,0.0,0.0,0.0,0.000949,-0.001618,0.003462,0.0,0.0,0.0,0.0,0.0,0.0,0.0,0.0,0.0,-0.256,-0.144,-9.693,0.0,0.0,0.0,0.0,0.0,0.0,0.0,0.0,0.0
1580877014171451926,178,1580877014171061992,,0.0151642593902,0.000399752194745,0.887890480664,0.459804719181,0.0,0.0,0.0,0.0,0.0,0.0,0.0,0.0,0.0,-0.000518,-0.000138,0.0039,0.0,0.0,0.0,0.0,0.0,0.0,0.0,0.0,0.0,-0.252,-0.129,-9.667,0.0,0.0,0.0,0.0,0.0,0.0,0.0,0.0,0.0
1580877014196834438,179,1580877014196434020,,0.0151524889374,0.00039641464125,0.887902594976,0.459781716437,0.0,0.0,0.0,0.0,0.0,0.0,0.0,0.0,0.0,-0.00067,0.00039,0.002632,0.0,0.0,0.0,0.0,0.0,0.0,0.0,0.0,0.0,-0.269,-0.17,-9.664,0.0,0.0,0.0,0.0,0.0,0.0,0.0,0.0,0.0
1580877014221786275,180,1580877014221412897,,0.015144741305,0.000400428499683,0.887902668406,0.459781826419,0.0,0.0,0.0,0.0,0.0,0.0,0.0,0.0,0.0,-0.000191,0.000515,0.000772,0.0,0.0,0.0,0.0,0.0,0.0,0.0,0.0,0.0,-0.249,-0.144,-9.698,0.0,0.0,0.0,0.0,0.0,0.0,0.0,0.0,0.0
1580877014246955362,181,1580877014246570110,,0.0151524923962,0.000396282410824,0.887898582589,0.459789464832,0.0,0.0,0.0,0.0,0.0,0.0,0.0,0.0,0.0,-0.000713,0.000519,-0.000749,0.0,0.0,0.0,0.0,0.0,0.0,0.0,0.0,0.0,-0.26,-0.145,-9.668,0.0,0.0,0.0,0.0,0.0,0.0,0.0,0.0,0.0
1580877014272222258,182,1580877014271759033,,0.0151565012892,0.000404163053095,0.887902591482,0.459781584189,0.0,0.0,0.0,0.0,0.0,0.0,0.0,0.0,0.0,2e-06,-0.000542,-0.001884,0.0,0.0,0.0,0.0,0.0,0.0,0.0,0.0,0.0,-0.257,-0.14,-9.672,0.0,0.0,0.0,0.0,0.0,0.0,0.0,0.0,0.0
1580877014297361856,183,1580877014296927928,,0.0151524889374,0.00039641464125,0.887902594976,0.459781716437,0.0,0.0,0.0,0.0,0.0,0.0,0.0,0.0,0.0,9.6e-05,-5e-06,0.000486,0.0,0.0,0.0,0.0,0.0,0.0,0.0,0.0,0.0,-0.231,-0.162,-9.667,0.0,0.0,0.0,0.0,0.0,0.0,0.0,0.0,0.0
1580877014322451747,184,1580877014322086095,,0.0151524923962,0.000396282410824,0.887898582589,0.459789464832,0.0,0.0,0.0,0.0,0.0,0.0,0.0,0.0,0.0,0.000501,0.000808,-0.003732,0.0,0.0,0.0,0.0,0.0,0.0,0.0,0.0,0.0,-0.246,-0.122,-9.695,0.0,0.0,0.0,0.0,0.0,0.0,0.0,0.0,0.0
1580877014347694752,185,1580877014347253084,,0.0151565012892,0.000404163053095,0.887902591482,0.459781584189,0.0,0.0,0.0,0.0,0.0,0.0,0.0,0.0,0.0,0.000371,0.000192,-0.003173,0.0,0.0,0.0,0.0,0.0,0.0,0.0,0.0,0.0,-0.248,-0.137,-9.701,0.0,0.0,0.0,0.0,0.0,0.0,0.0,0.0,0.0
1580877014373710078,186,1580877014373338937,,0.0151605172339,0.000411779164453,0.887898575538,0.459789200301,0.0,0.0,0.0,0.0,0.0,0.0,0.0,0.0,0.0,-0.000668,0.000645,0.000917,0.0,0.0,0.0,0.0,0.0,0.0,0.0,0.0,0.0,-0.263,-0.125,-9.689,0.0,0.0,0.0,0.0,0.0,0.0,0.0,0.0,0.0
1580877014397984932,187,1580877014397595882,,0.015168257709,0.000408029973198,0.887906526809,0.459773593326,0.0,0.0,0.0,0.0,0.0,0.0,0.0,0.0,0.0,0.000133,-5e-05,0.001373,0.0,0.0,0.0,0.0,0.0,0.0,0.0,0.0,0.0,-0.257,-0.125,-9.658,0.0,0.0,0.0,0.0,0.0,0.0,0.0,0.0,0.0
1580877014423315446,188,1580877014422847032,,0.0151642419333,0.000400413860001,0.887910542585,0.459765977212,0.0,0.0,0.0,0.0,0.0,0.0,0.0,0.0,0.0,-0.000974,0.000343,0.000999,0.0,0.0,0.0,0.0,0.0,0.0,0.0,0.0,0.0,-0.27,-0.145,-9.681,0.0,0.0,0.0,0.0,0.0,0.0,0.0,0.0,0.0
1580877014452897155,189,1580877014448735952,,0.0151760018459,0.000404148616647,0.887910465559,0.459765734676,0.0,0.0,0.0,0.0,0.0,0.0,0.0,0.0,0.0,0.001601,9.1e-05,1.6e-05,0.0,0.0,0.0,0.0,0.0,0.0,0.0,0.0,0.0,-0.253,-0.133,-9.673,0.0,0.0,0.0,0.0,0.0,0.0,0.0,0.0,0.0
1580877014473568780,190,1580877014473144054,,0.0151564977617,0.000404295318505,0.8879066038,0.45977383576,0.0,0.0,0.0,0.0,0.0,0.0,0.0,0.0,0.0,0.000756,0.001094,-0.003257,0.0,0.0,0.0,0.0,0.0,0.0,0.0,0.0,0.0,-0.236,-0.136,-9.679,0.0,0.0,0.0,0.0,0.0,0.0,0.0,0.0,0.0
1580877014498884363,191,1580877014498416900,,0.015168257709,0.000408029973198,0.887906526809,0.459773593326,0.0,0.0,0.0,0.0,0.0,0.0,0.0,0.0,0.0,0.000668,0.000113,0.003101,0.0,0.0,0.0,0.0,0.0,0.0,0.0,0.0,0.0,-0.232,-0.153,-9.657,0.0,0.0,0.0,0.0,0.0,0.0,0.0,0.0,0.0
1580877014523800371,192,1580877014523410081,,0.0151645259894,0.000419659876691,0.887902584293,0.459781319588,0.0,0.0,0.0,0.0,0.0,0.0,0.0,0.0,0.0,-0.0001,9.5e-05,-0.002085,0.0,0.0,0.0,0.0,0.0,0.0,0.0,0.0,0.0,-0.248,-0.139,-9.685,0.0,0.0,0.0,0.0,0.0,0.0,0.0,0.0,0.0
1580877014548949529,193,1580877014548564910,,0.0151800320162,0.000411234743719,0.887890400095,0.459804344188,0.0,0.0,0.0,0.0,0.0,0.0,0.0,0.0,0.0,-0.00024,0.000269,-0.003448,0.0,0.0,0.0,0.0,0.0,0.0,0.0,0.0,0.0,-0.257,-0.162,-9.659,0.0,0.0,0.0,0.0,0.0,0.0,0.0,0.0,0.0
1580877014575364143,194,1580877014574826955,,0.0151877724275,0.000407485757136,0.887898351532,0.459788737217,0.0,0.0,0.0,0.0,0.0,0.0,0.0,0.0,0.0,-0.000237,-0.000571,0.00315,0.0,0.0,0.0,0.0,0.0,0.0,0.0,0.0,0.0,-0.246,-0.121,-9.683,0.0,0.0,0.0,0.0,0.0,0.0,0.0,0.0,0.0
1580877014600314420,195,1580877014599894046,,0.0151760159441,0.000403618874002,0.887894416167,0.459796728318,0.0,0.0,0.0,0.0,0.0,0.0,0.0,0.0,0.0,-0.000538,0.000927,-0.002927,0.0,0.0,0.0,0.0,0.0,0.0,0.0,0.0,0.0,-0.271,-0.154,-9.691,0.0,0.0,0.0,0.0,0.0,0.0,0.0,0.0,0.0
1580877014625663546,196,1580877014625257015,,0.0151760124213,0.00040375130971,0.887898428616,0.45978897996,0.0,0.0,0.0,0.0,0.0,0.0,0.0,0.0,0.0,0.00167,4e-05,0.002233,0.0,0.0,0.0,0.0,0.0,0.0,0.0,0.0,0.0,-0.256,-0.142,-9.677,0.0,0.0,0.0,0.0,0.0,0.0,0.0,0.0,0.0
1580877014651175404,197,1580877014650691032,,0.0151837635011,0.000399604878974,0.887894342605,0.459796618095,0.0,0.0,0.0,0.0,0.0,0.0,0.0,0.0,0.0,-4.2e-05,-0.00163,-0.001677,0.0,0.0,0.0,0.0,0.0,0.0,0.0,0.0,0.0,-0.253,-0.136,-9.656,0.0,0.0,0.0,0.0,0.0,0.0,0.0,0.0,0.0
1580877014675840881,198,1580877014675467967,,0.0151760053722,0.000404016181032,0.887906453313,0.459773483139,0.0,0.0,0.0,0.0,0.0,0.0,0.0,0.0,0.0,0.000405,-0.001124,0.000494,0.0,0.0,0.0,0.0,0.0,0.0,0.0,0.0,0.0,-0.26,-0.139,-9.677,0.0,0.0,0.0,0.0,0.0,0.0,0.0,0.0,0.0
1580877014701078869,199,1580877014700695037,,0.0151760088973,0.000403883745386,0.887902440998,0.459781231567,0.0,0.0,0.0,0.0,0.0,0.0,0.0,0.0,0.0,0.001255,-0.000146,-0.003028,0.0,0.0,0.0,0.0,0.0,0.0,0.0,0.0,0.0,-0.247,-0.145,-9.689,0.0,0.0,0.0,0.0,0.0,0.0,0.0,0.0,0.0
1580877014726279184,200,1580877014725879907,,0.0151645333115,0.000419395205719,0.88789455946,0.459796816342,0.0,0.0,0.0,0.0,0.0,0.0,0.0,0.0,0.0,-0.001323,0.000162,-0.004448,0.0,0.0,0.0,0.0,0.0,0.0,0.0,0.0,0.0,-0.263,-0.127,-9.665,0.0,0.0,0.0,0.0,0.0,0.0,0.0,0.0,0.0
1580877014751361244,201,1580877014750967979,,0.0151567783599,0.000423673737045,0.887902657619,0.459781429773,0.0,0.0,0.0,0.0,0.0,0.0,0.0,0.0,0.0,0.000617,-0.000117,-0.000518,0.0,0.0,0.0,0.0,0.0,0.0,0.0,0.0,0.0,-0.253,-0.133,-9.661,0.0,0.0,0.0,0.0,0.0,0.0,0.0,0.0,0.0
1580877014776544557,202,1580877014776165962,,0.0151567894465,0.00042327693337,0.887890620265,0.459804674853,0.0,0.0,0.0,0.0,0.0,0.0,0.0,0.0,0.0,5.8e-05,0.00087,-0.004643,0.0,0.0,0.0,0.0,0.0,0.0,0.0,0.0,0.0,-0.273,-0.139,-9.668,0.0,0.0,0.0,0.0,0.0,0.0,0.0,0.0,0.0
1580877014801903047,203,1580877014801493883,,0.0151608019986,0.000431025240715,0.887890616537,0.459804542567,0.0,0.0,0.0,0.0,0.0,0.0,0.0,0.0,0.0,-0.000197,-0.000524,-0.002551,0.0,0.0,0.0,0.0,0.0,0.0,0.0,0.0,0.0,-0.268,-0.133,-9.672,0.0,0.0,0.0,0.0,0.0,0.0,0.0,0.0,0.0
1580877014828888423,204,1580877014826525926,,0.0151608057595,0.000430892937742,0.887886603952,0.459812290857,0.0,0.0,0.0,0.0,0.0,0.0,0.0,0.0,0.0,0.000513,0.00015,5e-05,0.0,0.0,0.0,0.0,0.0,0.0,0.0,0.0,0.0,-0.256,-0.163,-9.665,0.0,0.0,0.0,0.0,0.0,0.0,0.0,0.0,0.0
1580877014852725712,205,1580877014852276086,,0.0151608019986,0.000431025240715,0.887890616537,0.459804542567,0.0,0.0,0.0,0.0,0.0,0.0,0.0,0.0,0.0,7e-06,0.00172,-0.000677,0.0,0.0,0.0,0.0,0.0,0.0,0.0,0.0,0.0,-0.258,-0.128,-9.694,0.0,0.0,0.0,0.0,0.0,0.0,0.0,0.0,0.0
1580877014877260820,206,1580877014876897096,,0.0151490419209,0.000427290996523,0.887890693519,0.459804785004,0.0,0.0,0.0,0.0,0.0,0.0,0.0,0.0,0.0,-0.001255,-4.5e-05,-0.002881,0.0,0.0,0.0,0.0,0.0,0.0,0.0,0.0,0.0,-0.267,-0.132,-9.667,0.0,0.0,0.0,0.0,0.0,0.0,0.0,0.0,0.0
1580877014903425156,207,1580877014902931928,,0.0151567931397,0.000423144665414,0.887886607678,0.459812423143,0.0,0.0,0.0,0.0,0.0,0.0,0.0,0.0,0.0,0.000901,-0.000904,0.001717,0.0,0.0,0.0,0.0,0.0,0.0,0.0,0.0,0.0,-0.248,-0.126,-9.673,0.0,0.0,0.0,0.0,0.0,0.0,0.0,0.0,0.0
1580877014927975604,208,1580877014927438974,,0.0151332729106,0.000415676379598,0.887886761508,0.459812907607,0.0,0.0,0.0,0.0,0.0,0.0,0.0,0.0,0.0,-0.000389,0.000509,-0.003023,0.0,0.0,0.0,0.0,0.0,0.0,0.0,0.0,0.0,-0.259,-0.143,-9.685,0.0,0.0,0.0,0.0,0.0,0.0,0.0,0.0,0.0
1580877014952883608,209,1580877014952436923,,0.0151292602854,0.000407928105896,0.887886765102,0.459813039653,0.0,0.0,0.0,0.0,0.0,0.0,0.0,0.0,0.0,-0.000783,-0.00085,-0.000528,0.0,0.0,0.0,0.0,0.0,0.0,0.0,0.0,0.0,-0.252,-0.141,-9.649,0.0,0.0,0.0,0.0,0.0,0.0,0.0,0.0,0.0
1580877014978108138,210,1580877014977650880,,0.01513700778,0.000403913977083,0.887886691811,0.459812929738,0.0,0.0,0.0,0.0,0.0,0.0,0.0,0.0,0.0,0.00102,-0.000453,-0.003693,0.0,0.0,0.0,0.0,0.0,0.0,0.0,0.0,0.0,-0.261,-0.141,-9.674,0.0,0.0,0.0,0.0,0.0,0.0,0.0,0.0,0.0
1580877015003558060,211,1580877015002983093,,0.015129256725,0.000408060133583,0.887890777694,0.459805291361,0.0,0.0,0.0,0.0,0.0,0.0,0.0,0.0,0.0,3.4e-05,0.001121,0.003781,0.0,0.0,0.0,0.0,0.0,0.0,0.0,0.0,0.0,-0.24,-0.123,-9.66,0.0,0.0,0.0,0.0,0.0,0.0,0.0,0.0,0.0
1580877015028444138,212,1580877015027885913,,0.0151175036891,0.000404062035214,0.887882829225,0.459821029732,0.0,0.0,0.0,0.0,0.0,0.0,0.0,0.0,0.0,0.000232,-0.000762,-0.002781,0.0,0.0,0.0,0.0,0.0,0.0,0.0,0.0,0.0,-0.25,-0.137,-9.677,0.0,0.0,0.0,0.0,0.0,0.0,0.0,0.0,0.0
1580877015053543092,213,1580877015053081989,,0.0151212350316,0.000392431558399,0.887886772086,0.459813303638,0.0,0.0,0.0,0.0,0.0,0.0,0.0,0.0,0.0,-0.000172,-0.001069,-0.001696,0.0,0.0,0.0,0.0,0.0,0.0,0.0,0.0,0.0,-0.237,-0.148,-9.668,0.0,0.0,0.0,0.0,0.0,0.0,0.0,0.0,0.0
1580877015079190402,214,1580877015078321933,,0.0151249765421,0.00038040517713,0.887878676689,0.459828822343,0.0,0.0,0.0,0.0,0.0,0.0,0.0,0.0,0.0,-0.000398,-0.000449,-0.003282,0.0,0.0,0.0,0.0,0.0,0.0,0.0,0.0,0.0,-0.26,-0.134,-9.689,0.0,0.0,0.0,0.0,0.0,0.0,0.0,0.0,0.0
1580877015104002323,215,1580877015103403091,,0.0151209670295,0.000372525018666,0.887874667177,0.459836702501,0.0,0.0,0.0,0.0,0.0,0.0,0.0,0.0,0.0,0.000249,0.000261,-0.002852,0.0,0.0,0.0,0.0,0.0,0.0,0.0,0.0,0.0,-0.256,-0.136,-9.685,0.0,0.0,0.0,0.0,0.0,0.0,0.0,0.0,0.0
1580877015130092147,216,1580877015129415035,,0.0151094918502,0.000388038135885,0.88786678481,0.459852286189,0.0,0.0,0.0,0.0,0.0,0.0,0.0,0.0,0.0,0.000315,-0.000359,-0.0023,0.0,0.0,0.0,0.0,0.0,0.0,0.0,0.0,0.0,-0.263,-0.15,-9.679,0.0,0.0,0.0,0.0,0.0,0.0,0.0,0.0,0.0
1580877015155207725,217,1580877015154537916,,0.0151212521403,0.00039177176968,0.887866708101,0.459852044569,0.0,0.0,0.0,0.0,0.0,0.0,0.0,0.0,0.0,-0.000556,2.3e-05,-0.003239,0.0,0.0,0.0,0.0,0.0,0.0,0.0,0.0,0.0,-0.244,-0.127,-9.667,0.0,0.0,0.0,0.0,0.0,0.0,0.0,0.0,0.0
1580877015181003059,218,1580877015179701089,,0.0151175213052,0.000403402409294,0.887862764903,0.459859770491,0.0,0.0,0.0,0.0,0.0,0.0,0.0,0.0,0.0,0.000309,-0.000392,0.002195,0.0,0.0,0.0,0.0,0.0,0.0,0.0,0.0,0.0,-0.253,-0.146,-9.665,0.0,0.0,0.0,0.0,0.0,0.0,0.0,0.0,0.0
1580877015205219644,219,1580877015204747915,,0.0151175142622,0.000403666259754,0.887870790834,0.459844274292,0.0,0.0,0.0,0.0,0.0,0.0,0.0,0.0,0.0,-0.000262,5.9e-05,0.003347,0.0,0.0,0.0,0.0,0.0,0.0,0.0,0.0,0.0,-0.253,-0.142,-9.681,0.0,0.0,0.0,0.0,0.0,0.0,0.0,0.0,0.0
1580877015232350046,220,1580877015231365919,,0.0151215235691,0.000411546354258,0.887874800141,0.459836394198,0.0,0.0,0.0,0.0,0.0,0.0,0.0,0.0,0.0,4.5e-05,-0.001529,0.002476,0.0,0.0,0.0,0.0,0.0,0.0,0.0,0.0,0.0,-0.256,-0.139,-9.684,0.0,0.0,0.0,0.0,0.0,0.0,0.0,0.0,0.0
1580877015255428935,221,1580877015254910945,,0.0151175142622,0.000403666259754,0.887870790834,0.459844274292,0.0,0.0,0.0,0.0,0.0,0.0,0.0,0.0,0.0,-0.000644,0.000123,-0.003915,0.0,0.0,0.0,0.0,0.0,0.0,0.0,0.0,0.0,-0.259,-0.149,-9.67,0.0,0.0,0.0,0.0,0.0,0.0,0.0,0.0,0.0
1580877015280545642,222,1580877015280066967,,0.0151134979077,0.000396050015588,0.887874807189,0.459836658048,0.0,0.0,0.0,0.0,0.0,0.0,0.0,0.0,0.0,0.000666,-0.001493,0.003173,0.0,0.0,0.0,0.0,0.0,0.0,0.0,0.0,0.0,-0.266,-0.142,-9.675,0.0,0.0,0.0,0.0,0.0,0.0,0.0,0.0,0.0
1580877015305817089,223,1580877015305341958,,0.0151057400352,0.000400459813375,0.887886918606,0.459813523091,0.0,0.0,0.0,0.0,0.0,0.0,0.0,0.0,0.0,0.000405,0.000235,0.004108,0.0,0.0,0.0,0.0,0.0,0.0,0.0,0.0,0.0,-0.24,-0.156,-9.691,0.0,0.0,0.0,0.0,0.0,0.0,0.0,0.0,0.0
1580877015330698541,224,1580877015330281019,,0.0151097597869,0.000407944373422,0.887878889685,0.459828887731,0.0,0.0,0.0,0.0,0.0,0.0,0.0,0.0,0.0,-7.6e-05,0.000945,-0.002388,0.0,0.0,0.0,0.0,0.0,0.0,0.0,0.0,0.0,-0.255,-0.131,-9.659,0.0,0.0,0.0,0.0,0.0,0.0,0.0,0.0,0.0
1580877015356075012,225,1580877015355706930,,0.0150902521614,0.000408224693706,0.887879039457,0.459829238887,0.0,0.0,0.0,0.0,0.0,0.0,0.0,0.0,0.0,0.000192,0.000719,0.001303,0.0,0.0,0.0,0.0,0.0,0.0,0.0,0.0,0.0,-0.255,-0.14,-9.673,0.0,0.0,0.0,0.0,0.0,0.0,0.0,0.0,0.0
1580877015381161346,226,1580877015380652904,,0.0150862324017,0.00040073979188,0.887887068387,0.459813874074,0.0,0.0,0.0,0.0,0.0,0.0,0.0,0.0,0.0,0.001214,0.001237,0.003718,0.0,0.0,0.0,0.0,0.0,0.0,0.0,0.0,0.0,-0.25,-0.139,-9.66,0.0,0.0,0.0,0.0,0.0,0.0,0.0,0.0,0.0
1580877015406528206,227,1580877015405930042,,0.015078477832,0.000405017087769,0.887895166578,0.459798486987,0.0,0.0,0.0,0.0,0.0,0.0,0.0,0.0,0.0,-0.000147,0.000529,-0.001045,0.0,0.0,0.0,0.0,0.0,0.0,0.0,0.0,0.0,-0.257,-0.146,-9.673,0.0,0.0,0.0,0.0,0.0,0.0,0.0,0.0,0.0
1580877015431856339,228,1580877015431210041,,0.0150784848986,0.000404753918623,0.887887141445,0.459813983611,0.0,0.0,0.0,0.0,0.0,0.0,0.0,0.0,0.0,-0.001084,-0.000381,1.1e-05,0.0,0.0,0.0,0.0,0.0,0.0,0.0,0.0,0.0,-0.272,-0.122,-9.651,0.0,0.0,0.0,0.0,0.0,0.0,0.0,0.0,0.0
1580877015457243922,229,1580877015456012010,,0.0150862393937,0.000400476487392,0.887879042985,0.459829370557,0.0,0.0,0.0,0.0,0.0,0.0,0.0,0.0,0.0,0.000379,-0.000609,-0.003736,0.0,0.0,0.0,0.0,0.0,0.0,0.0,0.0,0.0,-0.232,-0.145,-9.69,0.0,0.0,0.0,0.0,0.0,0.0,0.0,0.0,0.0
1580877015481345862,230,1580877015481003999,,0.015086246381,0.000400213182782,0.887871017314,0.4598448669,0.0,0.0,0.0,0.0,0.0,0.0,0.0,0.0,0.0,6.5e-05,-0.001315,0.000898,0.0,0.0,0.0,0.0,0.0,0.0,0.0,0.0,0.0,-0.248,-0.143,-9.667,0.0,0.0,0.0,0.0,0.0,0.0,0.0,0.0,0.0
1580877015506789406,231,1580877015506134986,,0.0150902557232,0.000408093006398,0.887875026656,0.459836987076,0.0,0.0,0.0,0.0,0.0,0.0,0.0,0.0,0.0,0.000757,2.6e-05,-0.003279,0.0,0.0,0.0,0.0,0.0,0.0,0.0,0.0,0.0,-0.258,-0.159,-9.665,0.0,0.0,0.0,0.0,0.0,0.0,0.0,0.0,0.0
1580877015532180004,232,1580877015531230926,,0.0150902557232,0.000408093006398,0.887875026656,0.459836987076,0.0,0.0,0.0,0.0,0.0,0.0,0.0,0.0,0.0,0.000921,-0.000173,0.001166,0.0,0.0,0.0,0.0,0.0,0.0,0.0,0.0,0.0,-0.268,-0.147,-9.663,0.0,0.0,0.0,0.0,0.0,0.0,0.0,0.0,0.0
1580877015556994136,233,1580877015556437015,,0.0150902592839,0.000407961319059,0.887871013787,0.45984473523,0.0,0.0,0.0,0.0,0.0,0.0,0.0,0.0,0.0,0.000822,0.000695,-0.001642,0.0,0.0,0.0,0.0,0.0,0.0,0.0,0.0,0.0,-0.251,-0.146,-9.635,0.0,0.0,0.0,0.0,0.0,0.0,0.0,0.0,0.0
1580877015581878665,234,1580877015581460952,,0.0150902592839,0.000407961319059,0.887871013787,0.45984473523,0.0,0.0,0.0,0.0,0.0,0.0,0.0,0.0,0.0,0.000124,0.000162,-0.003598,0.0,0.0,0.0,0.0,0.0,0.0,0.0,0.0,0.0,-0.254,-0.112,-9.652,0.0,0.0,0.0,0.0,0.0,0.0,0.0,0.0,0.0
1580877015607006515,235,1580877015606664896,,0.015086246381,0.000400213182782,0.887871017314,0.4598448669,0.0,0.0,0.0,0.0,0.0,0.0,0.0,0.0,0.0,-0.001051,-0.00037,-0.003865,0.0,0.0,0.0,0.0,0.0,0.0,0.0,0.0,0.0,-0.258,-0.144,-9.691,0.0,0.0,0.0,0.0,0.0,0.0,0.0,0.0,0.0
1580877015633136672,236,1580877015632719039,,0.0150939971998,0.000396067065612,0.887866931255,0.459852505444,0.0,0.0,0.0,0.0,0.0,0.0,0.0,0.0,0.0,-0.000262,0.000643,-0.003251,0.0,0.0,0.0,0.0,0.0,0.0,0.0,0.0,0.0,-0.245,-0.164,-9.668,0.0,0.0,0.0,0.0,0.0,0.0,0.0,0.0,0.0
1580877015659777801,237,1580877015659135103,,0.0150825155164,0.000411844097114,0.88786707387,0.459852592956,0.0,0.0,0.0,0.0,0.0,0.0,0.0,0.0,0.0,0.000404,-0.000397,-0.00221,0.0,0.0,0.0,0.0,0.0,0.0,0.0,0.0,0.0,-0.273,-0.153,-9.661,0.0,0.0,0.0,0.0,0.0,0.0,0.0,0.0,0.0
1580877015683503367,238,1580877015683073043,,0.0150825119218,0.000411975716876,0.887871086807,0.459844844836,0.0,0.0,0.0,0.0,0.0,0.0,0.0,0.0,0.0,-0.00066,-2.9e-05,8.5e-05,0.0,0.0,0.0,0.0,0.0,0.0,0.0,0.0,0.0,-0.264,-0.133,-9.699,0.0,0.0,0.0,0.0,0.0,0.0,0.0,0.0,0.0
1580877015708713766,239,1580877015708256006,,0.0150902628435,0.000407829631689,0.887867000851,0.459852483348,0.0,0.0,0.0,0.0,0.0,0.0,0.0,0.0,0.0,-0.000452,-0.000265,-0.003009,0.0,0.0,0.0,0.0,0.0,0.0,0.0,0.0,0.0,-0.272,-0.161,-9.695,0.0,0.0,0.0,0.0,0.0,0.0,0.0,0.0,0.0
1580877015734162249,240,1580877015733530998,,0.0150902664019,0.000407697944287,0.887862987847,0.459860231432,0.0,0.0,0.0,0.0,0.0,0.0,0.0,0.0,0.0,0.000641,-0.001262,-0.00226,0.0,0.0,0.0,0.0,0.0,0.0,0.0,0.0,0.0,-0.28,-0.15,-9.67,0.0,0.0,0.0,0.0,0.0,0.0,0.0,0.0,0.0
1580877015758743782,241,1580877015758277893,,0.0150902699592,0.000407566256855,0.887858974776,0.459867979481,0.0,0.0,0.0,0.0,0.0,0.0,0.0,0.0,0.0,-0.000125,0.000952,-0.001633,0.0,0.0,0.0,0.0,0.0,0.0,0.0,0.0,0.0,-0.241,-0.138,-9.643,0.0,0.0,0.0,0.0,0.0,0.0,0.0,0.0,0.0
1580877015783962036,242,1580877015783462047,,0.0150825262933,0.00041144923764,0.887855034653,0.459875837104,0.0,0.0,0.0,0.0,0.0,0.0,0.0,0.0,0.0,-0.000607,-0.000309,-0.00234,0.0,0.0,0.0,0.0,0.0,0.0,0.0,0.0,0.0,-0.259,-0.135,-9.668,0.0,0.0,0.0,0.0,0.0,0.0,0.0,0.0,0.0
1580877015809152634,243,1580877015808500051,,0.0150942903101,0.00041505084304,0.887850944842,0.459883343768,0.0,0.0,0.0,0.0,0.0,0.0,0.0,0.0,0.0,0.000317,0.000607,-0.004368,0.0,0.0,0.0,0.0,0.0,0.0,0.0,0.0,0.0,-0.244,-0.147,-9.698,0.0,0.0,0.0,0.0,0.0,0.0,0.0,0.0,0.0
1580877015834193874,244,1580877015833733081,,0.0150942903101,0.00041505084304,0.887850944842,0.459883343768,0.0,0.0,0.0,0.0,0.0,0.0,0.0,0.0,0.0,-0.000551,0.000346,-0.002713,0.0,0.0,0.0,0.0,0.0,0.0,0.0,0.0,0.0,-0.262,-0.119,-9.696,0.0,0.0,0.0,0.0,0.0,0.0,0.0,0.0,0.0
1580877015859368556,245,1580877015858808040,,0.0150902770702,0.000407302881897,0.88785094843,0.459883475473,0.0,0.0,0.0,0.0,0.0,0.0,0.0,0.0,0.0,-0.000952,-0.001212,0.002529,0.0,0.0,0.0,0.0,0.0,0.0,0.0,0.0,0.0,-0.245,-0.136,-9.682,0.0,0.0,0.0,0.0,0.0,0.0,0.0,0.0,0.0
1580877015884470850,246,1580877015884047985,,0.0150902770702,0.000407302881897,0.88785094843,0.459883475473,0.0,0.0,0.0,0.0,0.0,0.0,0.0,0.0,0.0,0.000548,0.000469,-0.003769,0.0,0.0,0.0,0.0,0.0,0.0,0.0,0.0,0.0,-0.249,-0.165,-9.674,0.0,0.0,0.0,0.0,0.0,0.0,0.0,0.0,0.0
1580877015910602980,247,1580877015910171031,,0.0151060507326,0.00041878406699,0.887850868174,0.459883102248,0.0,0.0,0.0,0.0,0.0,0.0,0.0,0.0,0.0,0.000776,-0.000832,0.000836,0.0,0.0,0.0,0.0,0.0,0.0,0.0,0.0,0.0,-0.257,-0.168,-9.651,0.0,0.0,0.0,0.0,0.0,0.0,0.0,0.0,0.0
1580877015934609239,248,1580877015934181928,,0.0151100527974,0.000426927607835,0.88786290389,0.459859726367,0.0,0.0,0.0,0.0,0.0,0.0,0.0,0.0,0.0,0.000564,-0.001106,0.000621,0.0,0.0,0.0,0.0,0.0,0.0,0.0,0.0,0.0,-0.241,-0.143,-9.661,0.0,0.0,0.0,0.0,0.0,0.0,0.0,0.0,0.0
1580877015959858225,249,1580877015959444999,,0.0151060470775,0.000418915892135,0.887854881378,0.45987535427,0.0,0.0,0.0,0.0,0.0,0.0,0.0,0.0,0.0,0.000911,-0.000573,-0.003993,0.0,0.0,0.0,0.0,0.0,0.0,0.0,0.0,0.0,-0.291,-0.148,-9.622,0.0,0.0,0.0,0.0,0.0,0.0,0.0,0.0,0.0
1580877015984863975,250,1580877015984500885,,0.0151178000843,0.000422913072826,0.887862830842,0.459859616486,0.0,0.0,0.0,0.0,0.0,0.0,0.0,0.0,0.0,0.000362,-0.000957,0.002528,0.0,0.0,0.0,0.0,0.0,0.0,0.0,0.0,0.0,-0.271,-0.134,-9.703,0.0,0.0,0.0,0.0,0.0,0.0,0.0,0.0,0.0
1580877016009999618,251,1580877016009605884,,0.0151137870515,0.000415165007958,0.887862834499,0.459859748396,0.0,0.0,0.0,0.0,0.0,0.0,0.0,0.0,0.0,-0.000201,0.000723,-0.002879,0.0,0.0,0.0,0.0,0.0,0.0,0.0,0.0,0.0,-0.269,-0.141,-9.643,0.0,0.0,0.0,0.0,0.0,0.0,0.0,0.0,0.0
1580877016035019101,252,1580877016034609079,,0.015125551025,0.000418766542468,0.887858744662,0.459867254617,0.0,0.0,0.0,0.0,0.0,0.0,0.0,0.0,0.0,0.000632,0.000409,0.001903,0.0,0.0,0.0,0.0,0.0,0.0,0.0,0.0,0.0,-0.251,-0.149,-9.652,0.0,0.0,0.0,0.0,0.0,0.0,0.0,0.0,0.0
1580877016060103575,253,1580877016059696912,,0.0151177927008,0.000423176928149,0.887870856771,0.459844120286,0.0,0.0,0.0,0.0,0.0,0.0,0.0,0.0,0.0,0.00038,-0.001015,0.003136,0.0,0.0,0.0,0.0,0.0,0.0,0.0,0.0,0.0,-0.276,-0.144,-9.642,0.0,0.0,0.0,0.0,0.0,0.0,0.0,0.0,0.0
1580877016087726849,254,1580877016087174892,,0.0151413207129,0.000430380129799,0.887862677167,0.459859132423,0.0,0.0,0.0,0.0,0.0,0.0,0.0,0.0,0.0,0.000714,6.4e-05,-0.003574,0.0,0.0,0.0,0.0,0.0,0.0,0.0,0.0,0.0,-0.244,-0.148,-9.683,0.0,0.0,0.0,0.0,0.0,0.0,0.0,0.0,0.0
1580877016110203323,255,1580877016109795093,,0.0151373113719,0.000422499968326,0.887858667826,0.459867012585,0.0,0.0,0.0,0.0,0.0,0.0,0.0,0.0,0.0,-0.000552,-0.000478,0.000714,0.0,0.0,0.0,0.0,0.0,0.0,0.0,0.0,0.0,-0.244,-0.131,-9.646,0.0,0.0,0.0,0.0,0.0,0.0,0.0,0.0,0.0
1580877016136284425,256,1580877016135881900,,0.0151450476582,0.000418881861539,0.887870633595,0.45984365829,0.0,0.0,0.0,0.0,0.0,0.0,0.0,0.0,0.0,0.000631,-0.000808,0.003181,0.0,0.0,0.0,0.0,0.0,0.0,0.0,0.0,0.0,-0.247,-0.14,-9.677,0.0,0.0,0.0,0.0,0.0,0.0,0.0,0.0,0.0
1580877016161414979,257,1580877016161015033,,0.0151255327385,0.000419426518735,0.887878809311,0.459828514033,0.0,0.0,0.0,0.0,0.0,0.0,0.0,0.0,0.0,-3.5e-05,3.8e-05,0.003781,0.0,0.0,0.0,0.0,0.0,0.0,0.0,0.0,0.0,-0.258,-0.162,-9.68,0.0,0.0,0.0,0.0,0.0,0.0,0.0,0.0,0.0
1580877016186478507,258,1580877016186081886,,0.0151372855346,0.000423424653269,0.887886757847,0.459812775527,0.0,0.0,0.0,0.0,0.0,0.0,0.0,0.0,0.0,0.000502,-0.000801,0.002912,0.0,0.0,0.0,0.0,0.0,0.0,0.0,0.0,0.0,-0.244,-0.16,-9.675,0.0,0.0,0.0,0.0,0.0,0.0,0.0,0.0,0.0
1580877016211587794,259,1580877016211112976,,0.0151412868642,0.000431569325018,0.887898791681,0.459789398434,0.0,0.0,0.0,0.0,0.0,0.0,0.0,0.0,0.0,0.001758,-0.000426,0.001932,0.0,0.0,0.0,0.0,0.0,0.0,0.0,0.0,0.0,-0.266,-0.159,-9.649,0.0,0.0,0.0,0.0,0.0,0.0,0.0,0.0,0.0
1580877016236549410,260,1580877016236148118,,0.0151493156016,0.00044693387959,0.887894771562,0.459796882459,0.0,0.0,0.0,0.0,0.0,0.0,0.0,0.0,0.0,0.000419,0.001129,0.001836,0.0,0.0,0.0,0.0,0.0,0.0,0.0,0.0,0.0,-0.244,-0.145,-9.662,0.0,0.0,0.0,0.0,0.0,0.0,0.0,0.0,0.0
1580877016262072179,261,1580877016261662006,,0.0151493195012,0.000446801676854,0.887890759044,0.459804630785,0.0,0.0,0.0,0.0,0.0,0.0,0.0,0.0,0.0,8.4e-05,1.2e-05,-0.004325,0.0,0.0,0.0,0.0,0.0,0.0,0.0,0.0,0.0,-0.233,-0.137,-9.67,0.0,0.0,0.0,0.0,0.0,0.0,0.0,0.0,0.0
1580877016286629122,262,1580877016286237955,,0.0151415759088,0.000450683606058,0.887886819506,0.459812489294,0.0,0.0,0.0,0.0,0.0,0.0,0.0,0.0,0.0,0.000202,-0.000105,-0.00364,0.0,0.0,0.0,0.0,0.0,0.0,0.0,0.0,0.0,-0.237,-0.128,-9.67,0.0,0.0,0.0,0.0,0.0,0.0,0.0,0.0,0.0
1580877016311750381,263,1580877016311408042,,0.0151375555543,0.000443199532101,0.887894848514,0.459797124793,0.0,0.0,0.0,0.0,0.0,0.0,0.0,0.0,0.0,3.1e-05,6.3e-05,0.004105,0.0,0.0,0.0,0.0,0.0,0.0,0.0,0.0,0.0,-0.273,-0.126,-9.706,0.0,0.0,0.0,0.0,0.0,0.0,0.0,0.0,0.0
1580877016338542207,264,1580877016337910890,,0.0151453031162,0.000439185535985,0.887894775429,0.459797014645,0.0,0.0,0.0,0.0,0.0,0.0,0.0,0.0,0.0,0.000712,-0.001327,-0.003982,0.0,0.0,0.0,0.0,0.0,0.0,0.0,0.0,0.0,-0.244,-0.151,-9.674,0.0,0.0,0.0,0.0,0.0,0.0,0.0,0.0,0.0
1580877016361943309,265,1580877016361490964,,0.0151533360191,0.000454417747623,0.887886742526,0.459812246856,0.0,0.0,0.0,0.0,0.0,0.0,0.0,0.0,0.0,0.000415,8.6e-05,0.00063,0.0,0.0,0.0,0.0,0.0,0.0,0.0,0.0,0.0,-0.254,-0.123,-9.682,0.0,0.0,0.0,0.0,0.0,0.0,0.0,0.0,0.0
1580877016386918300,266,1580877016386526107,,0.0151493272971,0.000446537271282,0.887882733804,0.459820127332,0.0,0.0,0.0,0.0,0.0,0.0,0.0,0.0,0.0,-0.000526,0.0002,-0.004373,0.0,0.0,0.0,0.0,0.0,0.0,0.0,0.0,0.0,-0.251,-0.131,-9.677,0.0,0.0,0.0,0.0,0.0,0.0,0.0,0.0,0.0
1580877016412315116,267,1580877016411874055,,0.0151453222649,0.000438524697054,0.887874712154,0.459835755925,0.0,0.0,0.0,0.0,0.0,0.0,0.0,0.0,0.0,0.000178,0.000709,-0.003384,0.0,0.0,0.0,0.0,0.0,0.0,0.0,0.0,0.0,-0.252,-0.143,-9.673,0.0,0.0,0.0,0.0,0.0,0.0,0.0,0.0,0.0
1580877016437058121,268,1580877016436729907,,0.0151490605506,0.000426629994467,0.887870629906,0.459843526107,0.0,0.0,0.0,0.0,0.0,0.0,0.0,0.0,0.0,-0.000214,-0.000277,0.002617,0.0,0.0,0.0,0.0,0.0,0.0,0.0,0.0,0.0,-0.24,-0.165,-9.651,0.0,0.0,0.0,0.0,0.0,0.0,0.0,0.0,0.0
1580877016462157444,269,1580877016461760044,,0.0151568005226,0.000422880129405,0.887878582302,0.459827919617,0.0,0.0,0.0,0.0,0.0,0.0,0.0,0.0,0.0,-2.6e-05,-0.000656,0.003444,0.0,0.0,0.0,0.0,0.0,0.0,0.0,0.0,0.0,-0.264,-0.161,-9.668,0.0,0.0,0.0,0.0,0.0,0.0,0.0,0.0,0.0
1580877016487454763,270,1580877016486948013,,0.015160817035,0.000430496028628,0.88787456579,0.459835535516,0.0,0.0,0.0,0.0,0.0,0.0,0.0,0.0,0.0,0.000241,0.000165,-0.001798,0.0,0.0,0.0,0.0,0.0,0.0,0.0,0.0,0.0,-0.25,-0.125,-9.671,0.0,0.0,0.0,0.0,0.0,0.0,0.0,0.0,0.0
1580877016512453201,271,1580877016512016057,,0.015160817035,0.000430496028628,0.88787456579,0.459835535516,0.0,0.0,0.0,0.0,0.0,0.0,0.0,0.0,0.0,0.001297,-0.000672,-0.003249,0.0,0.0,0.0,0.0,0.0,0.0,0.0,0.0,0.0,-0.256,-0.16,-9.7,0.0,0.0,0.0,0.0,0.0,0.0,0.0,0.0,0.0
1580877016537542177,272,1580877016537146091,,0.0151608245463,0.000430231422388,0.88786654001,0.459851031781,0.0,0.0,0.0,0.0,0.0,0.0,0.0,0.0,0.0,-0.000108,0.000139,-0.000399,0.0,0.0,0.0,0.0,0.0,0.0,0.0,0.0,0.0,-0.248,-0.15,-9.639,0.0,0.0,0.0,0.0,0.0,0.0,0.0,0.0,0.0
1580877016562595010,273,1580877016562151908,,0.0151608245463,0.000430231422388,0.88786654001,0.459851031781,0.0,0.0,0.0,0.0,0.0,0.0,0.0,0.0,0.0,8e-05,-0.000522,-0.001642,0.0,0.0,0.0,0.0,0.0,0.0,0.0,0.0,0.0,-0.245,-0.157,-9.666,0.0,0.0,0.0,0.0,0.0,0.0,0.0,0.0,0.0
1580877016587612786,274,1580877016587198019,,0.015156807901,0.000422615593268,0.887870556656,0.459843415952,0.0,0.0,0.0,0.0,0.0,0.0,0.0,0.0,0.0,-9.2e-05,0.000994,0.004118,0.0,0.0,0.0,0.0,0.0,0.0,0.0,0.0,0.0,-0.253,-0.142,-9.653,0.0,0.0,0.0,0.0,0.0,0.0,0.0,0.0,0.0
1580877016613667487,275,1580877016613265991,,0.0151608283002,0.000430099119219,0.887862527019,0.459858779861,0.0,0.0,0.0,0.0,0.0,0.0,0.0,0.0,0.0,0.000764,0.000589,-3.2e-05,0.0,0.0,0.0,0.0,0.0,0.0,0.0,0.0,0.0,-0.252,-0.144,-9.682,0.0,0.0,0.0,0.0,0.0,0.0,0.0,0.0,0.0
1580877016638692239,276,1580877016638300895,,0.0151608283002,0.000430099119219,0.887862527019,0.459858779861,0.0,0.0,0.0,0.0,0.0,0.0,0.0,0.0,0.0,0.000323,0.000157,-0.001699,0.0,0.0,0.0,0.0,0.0,0.0,0.0,0.0,0.0,-0.259,-0.15,-9.673,0.0,0.0,0.0,0.0,0.0,0.0,0.0,0.0,0.0
1580877016663758483,277,1580877016663419008,,0.0151608320529,0.000429966816017,0.887858513961,0.459866527905,0.0,0.0,0.0,0.0,0.0,0.0,0.0,0.0,0.0,-6.2e-05,-0.000548,-0.003808,0.0,0.0,0.0,0.0,0.0,0.0,0.0,0.0,0.0,-0.247,-0.137,-9.694,0.0,0.0,0.0,0.0,0.0,0.0,0.0,0.0,0.0
1580877016688806582,278,1580877016688478946,,0.0151648489641,0.000437582504925,0.887854497049,0.459874143594,0.0,0.0,0.0,0.0,0.0,0.0,0.0,0.0,0.0,-0.000764,0.000218,-0.002647,0.0,0.0,0.0,0.0,0.0,0.0,0.0,0.0,0.0,-0.237,-0.137,-9.659,0.0,0.0,0.0,0.0,0.0,0.0,0.0,0.0,0.0
1580877016714012170,279,1580877016713543891,,0.0151570979015,0.000441729448481,0.887858583352,0.459866505876,0.0,0.0,0.0,0.0,0.0,0.0,0.0,0.0,0.0,0.00014,4.8e-05,0.00187,0.0,0.0,0.0,0.0,0.0,0.0,0.0,0.0,0.0,-0.249,-0.139,-9.69,0.0,0.0,0.0,0.0,0.0,0.0,0.0,0.0,0.0
1580877016739037348,280,1580877016738626956,,0.0151570940461,0.000441861719096,0.88786259641,0.459858757831,0.0,0.0,0.0,0.0,0.0,0.0,0.0,0.0,0.0,0.001153,0.000609,-0.000443,0.0,0.0,0.0,0.0,0.0,0.0,0.0,0.0,0.0,-0.261,-0.14,-9.654,0.0,0.0,0.0,0.0,0.0,0.0,0.0,0.0,0.0
1580877016764052006,281,1580877016763668060,,0.0151648527821,0.000437450166635,0.887850483857,0.459881891569,0.0,0.0,0.0,0.0,0.0,0.0,0.0,0.0,0.0,-0.001275,-0.000457,-0.001308,0.0,0.0,0.0,0.0,0.0,0.0,0.0,0.0,0.0,-0.248,-0.136,-9.676,0.0,0.0,0.0,0.0,0.0,0.0,0.0,0.0,0.0
1580877016789242632,282,1580877016788791894,,0.015164856599,0.000437317828313,0.887846470596,0.459889639508,0.0,0.0,0.0,0.0,0.0,0.0,0.0,0.0,0.0,-0.000186,-0.000198,-0.002762,0.0,0.0,0.0,0.0,0.0,0.0,0.0,0.0,0.0,-0.258,-0.122,-9.688,0.0,0.0,0.0,0.0,0.0,0.0,0.0,0.0,0.0
1580877016814199751,283,1580877016813801050,,0.0151803508721,0.000429288211971,0.887846324045,0.459889418816,0.0,0.0,0.0,0.0,0.0,0.0,0.0,0.0,0.0,-0.000694,-0.000696,-0.00394,0.0,0.0,0.0,0.0,0.0,0.0,0.0,0.0,0.0,-0.241,-0.119,-9.687,0.0,0.0,0.0,0.0,0.0,0.0,0.0,0.0,0.0
1580877016840117765,284,1580877016839756965,,0.0151645771474,0.000417807177207,0.887846404782,0.459889793921,0.0,0.0,0.0,0.0,0.0,0.0,0.0,0.0,0.0,-0.000513,0.002151,-0.001496,0.0,0.0,0.0,0.0,0.0,0.0,0.0,0.0,0.0,-0.289,-0.14,-9.693,0.0,0.0,0.0,0.0,0.0,0.0,0.0,0.0,0.0
1580877016864298493,285,1580877016863979101,,0.0151686015781,0.000425157985784,0.887834360915,0.459912905175,0.0,0.0,0.0,0.0,0.0,0.0,0.0,0.0,0.0,0.000202,0.000554,-0.004912,0.0,0.0,0.0,0.0,0.0,0.0,0.0,0.0,0.0,-0.239,-0.127,-9.68,0.0,0.0,0.0,0.0,0.0,0.0,0.0,0.0,0.0
1580877016889567667,286,1580877016889152050,,0.0151645807928,0.000417674841291,0.887842391452,0.459897541825,0.0,0.0,0.0,0.0,0.0,0.0,0.0,0.0,0.0,8e-06,0.000187,-0.001019,0.0,0.0,0.0,0.0,0.0,0.0,0.0,0.0,0.0,-0.247,-0.145,-9.694,0.0,0.0,0.0,0.0,0.0,0.0,0.0,0.0,0.0
1580877016914711330,287,1580877016914244890,,0.0151645735007,0.000417939513092,0.887850418044,0.459882045982,0.0,0.0,0.0,0.0,0.0,0.0,0.0,0.0,0.0,-0.000669,-0.000344,-0.000587,0.0,0.0,0.0,0.0,0.0,0.0,0.0,0.0,0.0,-0.231,-0.162,-9.658,0.0,0.0,0.0,0.0,0.0,0.0,0.0,0.0,0.0
1580877016939715861,288,1580877016939280986,,0.015160839555,0.000429702209515,0.88785048764,0.45988202389,0.0,0.0,0.0,0.0,0.0,0.0,0.0,0.0,0.0,0.000748,0.001338,0.00419,0.0,0.0,0.0,0.0,0.0,0.0,0.0,0.0,0.0,-0.278,-0.149,-9.693,0.0,0.0,0.0,0.0,0.0,0.0,0.0,0.0,0.0
1580877016964734179,289,1580877016964353084,,0.0151685830127,0.00042581984048,0.887854427556,0.459874165655,0.0,0.0,0.0,0.0,0.0,0.0,0.0,0.0,0.0,0.000448,0.000174,0.001793,0.0,0.0,0.0,0.0,0.0,0.0,0.0,0.0,0.0,-0.268,-0.133,-9.684,0.0,0.0,0.0,0.0,0.0,0.0,0.0,0.0,0.0
1580877016990053267,290,1580877016989618062,,0.0151645589026,0.000418468856312,0.887866470414,0.459851053876,0.0,0.0,0.0,0.0,0.0,0.0,0.0,0.0,0.0,-0.000478,-0.000595,0.00322,0.0,0.0,0.0,0.0,0.0,0.0,0.0,0.0,0.0,-0.246,-0.137,-9.66,0.0,0.0,0.0,0.0,0.0,0.0,0.0,0.0,0.0
1580877017014910003,291,1580877017014422893,,0.0151530734418,0.000434378127362,0.887870626149,0.459843393889,0.0,0.0,0.0,0.0,0.0,0.0,0.0,0.0,0.0,0.000471,0.000287,-0.001179,0.0,0.0,0.0,0.0,0.0,0.0,0.0,0.0,0.0,-0.266,-0.141,-9.669,0.0,0.0,0.0,0.0,0.0,0.0,0.0,0.0,0.0
1580877017039956599,292,1580877017039505004,,0.0151453337403,0.000438128193294,0.887862673378,0.459859000273,0.0,0.0,0.0,0.0,0.0,0.0,0.0,0.0,0.0,0.000542,0.000769,-0.002796,0.0,0.0,0.0,0.0,0.0,0.0,0.0,0.0,0.0,-0.255,-0.139,-9.667,0.0,0.0,0.0,0.0,0.0,0.0,0.0,0.0,0.0
1580877017064911357,293,1580877017064517021,,0.015149064273,0.000426497793958,0.88786661698,0.459851274222,0.0,0.0,0.0,0.0,0.0,0.0,0.0,0.0,0.0,-0.000186,-0.000132,8e-06,0.0,0.0,0.0,0.0,0.0,0.0,0.0,0.0,0.0,-0.255,-0.14,-9.659,0.0,0.0,0.0,0.0,0.0,0.0,0.0,0.0,0.0
1580877017090549695,294,1580877017089914083,,0.0151450549668,0.000418617530528,0.887862607674,0.459859154485,0.0,0.0,0.0,0.0,0.0,0.0,0.0,0.0,0.0,0.001377,0.000288,0.000145,0.0,0.0,0.0,0.0,0.0,0.0,0.0,0.0,0.0,-0.243,-0.116,-9.706,0.0,0.0,0.0,0.0,0.0,0.0,0.0,0.0,0.0
1580877017115080497,295,1580877017114625930,,0.0151450622707,0.00041835319939,0.887854581482,0.459874650541,0.0,0.0,0.0,0.0,0.0,0.0,0.0,0.0,0.0,0.000136,1.1e-05,-0.001723,0.0,0.0,0.0,0.0,0.0,0.0,0.0,0.0,0.0,-0.244,-0.152,-9.673,0.0,0.0,0.0,0.0,0.0,0.0,0.0,0.0,0.0
1580877017141038706,296,1580877017140635967,,0.015141331975,0.000429983730802,0.887850637779,0.459882376456,0.0,0.0,0.0,0.0,0.0,0.0,0.0,0.0,0.0,0.000354,-0.000757,-0.000377,0.0,0.0,0.0,0.0,0.0,0.0,0.0,0.0,0.0,-0.263,-0.152,-9.678,0.0,0.0,0.0,0.0,0.0,0.0,0.0,0.0,0.0
1580877017167069645,297,1580877017166626930,,0.0151373187436,0.000422235772338,0.887850641498,0.459882508572,0.0,0.0,0.0,0.0,0.0,0.0,0.0,0.0,0.0,0.001048,-0.001581,-0.002349,0.0,0.0,0.0,0.0,0.0,0.0,0.0,0.0,0.0,-0.264,-0.141,-9.688,0.0,0.0,0.0,0.0,0.0,0.0,0.0,0.0,0.0
1580877017190974300,298,1580877017190587997,,0.0151373224277,0.000422103674296,0.887846628232,0.459890256513,0.0,0.0,0.0,0.0,0.0,0.0,0.0,0.0,0.0,8.9e-05,-1.1e-05,-0.002993,0.0,0.0,0.0,0.0,0.0,0.0,0.0,0.0,0.0,-0.261,-0.151,-9.662,0.0,0.0,0.0,0.0,0.0,0.0,0.0,0.0,0.0
1580877017216818554,299,1580877017215758085,,0.0151295752843,0.000426118480437,0.887846701376,0.459890366534,0.0,0.0,0.0,0.0,0.0,0.0,0.0,0.0,0.0,-0.000597,-9.3e-05,-0.003237,0.0,0.0,0.0,0.0,0.0,0.0,0.0,0.0,0.0,-0.264,-0.148,-9.664,0.0,0.0,0.0,0.0,0.0,0.0,0.0,0.0,0.0
1580877017242689283,300,1580877017241980075,,0.0151335923699,0.000433734339026,0.88784268429,0.459897982392,0.0,0.0,0.0,0.0,0.0,0.0,0.0,0.0,0.0,0.001538,0.000523,-0.003297,0.0,0.0,0.0,0.0,0.0,0.0,0.0,0.0,0.0,-0.24,-0.178,-9.688,0.0,0.0,0.0,0.0,0.0,0.0,0.0,0.0,0.0
1580877017266157036,301,1580877017265765905,,0.0151258528991,0.000437485217509,0.88783473046,0.459913588156,0.0,0.0,0.0,0.0,0.0,0.0,0.0,0.0,0.0,-7.8e-05,-0.000372,-0.002276,0.0,0.0,0.0,0.0,0.0,0.0,0.0,0.0,0.0,-0.257,-0.147,-9.698,0.0,0.0,0.0,0.0,0.0,0.0,0.0,0.0,0.0
1580877017291194182,302,1580877017290858030,,0.0151180981515,0.000441764087696,0.887842830304,0.459898202466,0.0,0.0,0.0,0.0,0.0,0.0,0.0,0.0,0.0,-0.000314,-0.000444,0.00301,0.0,0.0,0.0,0.0,0.0,0.0,0.0,0.0,0.0,-0.247,-0.15,-9.659,0.0,0.0,0.0,0.0,0.0,0.0,0.0,0.0,0.0
1580877017317050521,303,1580877017316632986,,0.015122115442,0.000449380012659,0.887838813013,0.459905818391,0.0,0.0,0.0,0.0,0.0,0.0,0.0,0.0,0.0,-0.00137,-0.000245,-0.003949,0.0,0.0,0.0,0.0,0.0,0.0,0.0,0.0,0.0,-0.264,-0.141,-9.684,0.0,0.0,0.0,0.0,0.0,0.0,0.0,0.0,0.0
1580877017341358453,304,1580877017340941905,,0.015122119363,0.000449248047289,0.887834799544,0.459913566228,0.0,0.0,0.0,0.0,0.0,0.0,0.0,0.0,0.0,0.000113,0.000426,-0.002759,0.0,0.0,0.0,0.0,0.0,0.0,0.0,0.0,0.0,-0.235,-0.152,-9.716,0.0,0.0,0.0,0.0,0.0,0.0,0.0,0.0,0.0
1580877017366331480,305,1580877017365864038,,0.0151221272015,0.000448984116448,0.887826772403,0.459929061799,0.0,0.0,0.0,0.0,0.0,0.0,0.0,0.0,0.0,0.001126,-0.000509,-0.002398,0.0,0.0,0.0,0.0,0.0,0.0,0.0,0.0,0.0,-0.27,-0.149,-9.656,0.0,0.0,0.0,0.0,0.0,0.0,0.0,0.0,0.0
1580877017392305148,306,1580877017391525030,,0.0151298780527,0.000444836937993,0.887822685798,0.459936699442,0.0,0.0,0.0,0.0,0.0,0.0,0.0,0.0,0.0,0.001207,0.000482,-0.000214,0.0,0.0,0.0,0.0,0.0,0.0,0.0,0.0,0.0,-0.275,-0.135,-9.706,0.0,0.0,0.0,0.0,0.0,0.0,0.0,0.0,0.0
1580877017416502861,307,1580877017416091918,,0.0151336150594,0.000432941945388,0.887818602871,0.459944469096,0.0,0.0,0.0,0.0,0.0,0.0,0.0,0.0,0.0,3.9e-05,-0.000644,-0.004409,0.0,0.0,0.0,0.0,0.0,0.0,0.0,0.0,0.0,-0.277,-0.139,-9.666,0.0,0.0,0.0,0.0,0.0,0.0,0.0,0.0,0.0
1580877017441475496,308,1580877017441042900,,0.0151336226133,0.000432677813911,0.887810575191,0.459959964384,0.0,0.0,0.0,0.0,0.0,0.0,0.0,0.0,0.0,0.000891,0.000654,0.0015,0.0,0.0,0.0,0.0,0.0,0.0,0.0,0.0,0.0,-0.251,-0.143,-9.66,0.0,0.0,0.0,0.0,0.0,0.0,0.0,0.0,0.0
1580877017466491010,309,1580877017466087102,,0.0151336263886,0.000432545748124,0.887806561249,0.459967711975,0.0,0.0,0.0,0.0,0.0,0.0,0.0,0.0,0.0,0.000396,-0.000813,-0.003858,0.0,0.0,0.0,0.0,0.0,0.0,0.0,0.0,0.0,-0.253,-0.143,-9.697,0.0,0.0,0.0,0.0,0.0,0.0,0.0,0.0,0.0
1580877017491451205,310,1580877017491087913,,0.0151336263886,0.000432545748124,0.887806561249,0.459967711975,0.0,0.0,0.0,0.0,0.0,0.0,0.0,0.0,0.0,0.000331,-0.000783,0.000842,0.0,0.0,0.0,0.0,0.0,0.0,0.0,0.0,0.0,-0.255,-0.117,-9.72,0.0,0.0,0.0,0.0,0.0,0.0,0.0,0.0,0.0
1580877017516432818,311,1580877017516031980,,0.0151336188369,0.000432809879666,0.887814589065,0.459952216758,0.0,0.0,0.0,0.0,0.0,0.0,0.0,0.0,0.0,-0.000265,7.6e-05,0.002606,0.0,0.0,0.0,0.0,0.0,0.0,0.0,0.0,0.0,-0.251,-0.152,-9.683,0.0,0.0,0.0,0.0,0.0,0.0,0.0,0.0,0.0
1580877017541776571,312,1580877017541263103,,0.0151336112807,0.000433074011077,0.88782261661,0.4599367214,0.0,0.0,0.0,0.0,0.0,0.0,0.0,0.0,0.0,0.000831,4.3e-05,0.00317,0.0,0.0,0.0,0.0,0.0,0.0,0.0,0.0,0.0,-0.264,-0.133,-9.671,0.0,0.0,0.0,0.0,0.0,0.0,0.0,0.0,0.0
1580877017567452624,313,1580877017566857099,,0.0151296012861,0.000425194266481,0.887818606616,0.459944601144,0.0,0.0,0.0,0.0,0.0,0.0,0.0,0.0,0.0,-0.000879,-0.001469,-0.003002,0.0,0.0,0.0,0.0,0.0,0.0,0.0,0.0,0.0,-0.257,-0.154,-9.643,0.0,0.0,0.0,0.0,0.0,0.0,0.0,0.0,0.0
1580877017591580266,314,1580877017591146945,,0.0151295938628,0.000425458327773,0.887826634028,0.459929105717,0.0,0.0,0.0,0.0,0.0,0.0,0.0,0.0,0.0,-0.001172,-0.000266,-0.001867,0.0,0.0,0.0,0.0,0.0,0.0,0.0,0.0,0.0,-0.278,-0.141,-9.678,0.0,0.0,0.0,0.0,0.0,0.0,0.0,0.0,0.0
1580877017616727907,315,1580877017616328001,,0.0151373371527,0.000421575281807,0.887830574493,0.459921247926,0.0,0.0,0.0,0.0,0.0,0.0,0.0,0.0,0.0,-0.000166,0.000142,0.004334,0.0,0.0,0.0,0.0,0.0,0.0,0.0,0.0,0.0,-0.256,-0.129,-9.687,0.0,0.0,0.0,0.0,0.0,0.0,0.0,0.0,0.0
1580877017643048621,316,1580877017641489028,,0.0151295864348,0.000425722388936,0.88783466117,0.459913610149,0.0,0.0,0.0,0.0,0.0,0.0,0.0,0.0,0.0,-0.000231,-0.000114,0.002439,0.0,0.0,0.0,0.0,0.0,0.0,0.0,0.0,0.0,-0.27,-0.137,-9.648,0.0,0.0,0.0,0.0,0.0,0.0,0.0,0.0,0.0
1580877017666872865,317,1580877017666479110,,0.0151138015343,0.000414637437012,0.887846781824,0.459890740375,0.0,0.0,0.0,0.0,0.0,0.0,0.0,0.0,0.0,-0.00148,-0.000955,0.002429,0.0,0.0,0.0,0.0,0.0,0.0,0.0,0.0,0.0,-0.234,-0.14,-9.666,0.0,0.0,0.0,0.0,0.0,0.0,0.0,0.0,0.0
1580877017691909220,318,1580877017691504955,,0.0151137979154,0.000414769329796,0.887850795094,0.459882992433,0.0,0.0,0.0,0.0,0.0,0.0,0.0,0.0,0.0,-0.001814,-0.000543,-0.000126,0.0,0.0,0.0,0.0,0.0,0.0,0.0,0.0,0.0,-0.258,-0.145,-9.664,0.0,0.0,0.0,0.0,0.0,0.0,0.0,0.0,0.0
1580877017716978794,319,1580877017716574907,,0.0151020339074,0.000411167896639,0.887854885,0.459875486078,0.0,0.0,0.0,0.0,0.0,0.0,0.0,0.0,0.0,-0.000299,-0.000832,0.003058,0.0,0.0,0.0,0.0,0.0,0.0,0.0,0.0,0.0,-0.257,-0.137,-9.665,0.0,0.0,0.0,0.0,0.0,0.0,0.0,0.0,0.0
1580877017741963730,320,1580877017741638898,,0.0150980207361,0.000403419901112,0.887854888554,0.45987561785,0.0,0.0,0.0,0.0,0.0,0.0,0.0,0.0,0.0,9e-05,0.001415,0.000643,0.0,0.0,0.0,0.0,0.0,0.0,0.0,0.0,0.0,-0.259,-0.136,-9.678,0.0,0.0,0.0,0.0,0.0,0.0,0.0,0.0,0.0
1580877017767093380,321,1580877017766655921,,0.0151020410813,0.000410904316361,0.887846858523,0.459890981999,0.0,0.0,0.0,0.0,0.0,0.0,0.0,0.0,0.0,3.8e-05,0.000274,-0.002283,0.0,0.0,0.0,0.0,0.0,0.0,0.0,0.0,0.0,-0.251,-0.178,-9.65,0.0,0.0,0.0,0.0,0.0,0.0,0.0,0.0,0.0
1580877017792151103,322,1580877017791765928,,0.0151137942952,0.000414901222549,0.887854808297,0.459875244456,0.0,0.0,0.0,0.0,0.0,0.0,0.0,0.0,0.0,0.001136,0.00062,0.000726,0.0,0.0,0.0,0.0,0.0,0.0,0.0,0.0,0.0,-0.259,-0.122,-9.647,0.0,0.0,0.0,0.0,0.0,0.0,0.0,0.0,0.0
1580877017817125266,323,1580877017816754102,,0.0151020446665,0.000410772526175,0.887842845183,0.459898729907,0.0,0.0,0.0,0.0,0.0,0.0,0.0,0.0,0.0,6.8e-05,0.000828,-0.002504,0.0,0.0,0.0,0.0,0.0,0.0,0.0,0.0,0.0,-0.251,-0.139,-9.648,0.0,0.0,0.0,0.0,0.0,0.0,0.0,0.0,0.0
1580877017843344658,324,1580877017842892885,,0.0151175318611,0.000403006633374,0.887850725498,0.459883014526,0.0,0.0,0.0,0.0,0.0,0.0,0.0,0.0,0.0,-0.000918,0.000791,0.001275,0.0,0.0,0.0,0.0,0.0,0.0,0.0,0.0,0.0,-0.274,-0.136,-9.66,0.0,0.0,0.0,0.0,0.0,0.0,0.0,0.0,0.0
1580877017868346669,325,1580877017867949008,,0.0151212726327,0.000390980022232,0.887842629087,0.459898532531,0.0,0.0,0.0,0.0,0.0,0.0,0.0,0.0,0.0,0.000185,0.000597,-0.000498,0.0,0.0,0.0,0.0,0.0,0.0,0.0,0.0,0.0,-0.264,-0.139,-9.688,0.0,0.0,0.0,0.0,0.0,0.0,0.0,0.0,0.0
1580877017893509217,326,1580877017893044948,,0.0151370464832,0.000402460926789,0.887842548847,0.459898158624,0.0,0.0,0.0,0.0,0.0,0.0,0.0,0.0,0.0,-6.1e-05,9.7e-05,-0.00413,0.0,0.0,0.0,0.0,0.0,0.0,0.0,0.0,0.0,-0.266,-0.131,-9.705,0.0,0.0,0.0,0.0,0.0,0.0,0.0,0.0,0.0
1580877017918314365,327,1580877017917941093,,0.0151370429705,0.000402593022423,0.887846562182,0.459890410718,0.0,0.0,0.0,0.0,0.0,0.0,0.0,0.0,0.0,0.000514,0.000533,0.00279,0.0,0.0,0.0,0.0,0.0,0.0,0.0,0.0,0.0,-0.263,-0.153,-9.687,0.0,0.0,0.0,0.0,0.0,0.0,0.0,0.0,0.0
1580877017943635868,328,1580877017943190097,,0.0151410491067,0.000410605206511,0.887854585099,0.459874782689,0.0,0.0,0.0,0.0,0.0,0.0,0.0,0.0,0.0,0.001321,0.000399,0.001191,0.0,0.0,0.0,0.0,0.0,0.0,0.0,0.0,0.0,-0.245,-0.139,-9.674,0.0,0.0,0.0,0.0,0.0,0.0,0.0,0.0,0.0
1580877017968978236,329,1580877017968560934,,0.0151525269207,0.000394960104906,0.887858455009,0.459866946849,0.0,0.0,0.0,0.0,0.0,0.0,0.0,0.0,0.0,0.000937,-0.001268,0.002011,0.0,0.0,0.0,0.0,0.0,0.0,0.0,0.0,0.0,-0.251,-0.15,-9.662,0.0,0.0,0.0,0.0,0.0,0.0,0.0,0.0,0.0
1580877017993751646,330,1580877017993200063,,0.01515654353,0.000402575865778,0.887854438399,0.45987456261,0.0,0.0,0.0,0.0,0.0,0.0,0.0,0.0,0.0,-0.00034,0.000414,-0.003575,0.0,0.0,0.0,0.0,0.0,0.0,0.0,0.0,0.0,-0.248,-0.152,-9.663,0.0,0.0,0.0,0.0,0.0,0.0,0.0,0.0,0.0
1580877018018796180,331,1580877018018368005,,0.0151565505539,0.000402311334129,0.887846411939,0.459890058523,0.0,0.0,0.0,0.0,0.0,0.0,0.0,0.0,0.0,0.000437,-0.000688,-0.00403,0.0,0.0,0.0,0.0,0.0,0.0,0.0,0.0,0.0,-0.264,-0.138,-9.661,0.0,0.0,0.0,0.0,0.0,0.0,0.0,0.0,0.0
1580877018043791242,332,1580877018043405055,,0.0151447935912,0.000398446054258,0.887842475499,0.459898048667,0.0,0.0,0.0,0.0,0.0,0.0,0.0,0.0,0.0,3.2e-05,0.001018,-0.001901,0.0,0.0,0.0,0.0,0.0,0.0,0.0,0.0,0.0,-0.229,-0.135,-9.699,0.0,0.0,0.0,0.0,0.0,0.0,0.0,0.0,0.0
1580877018068659362,333,1580877018068275928,,0.0151450768648,0.000417824536731,0.887838528288,0.459905642232,0.0,0.0,0.0,0.0,0.0,0.0,0.0,0.0,0.0,0.000278,0.000556,0.001542,0.0,0.0,0.0,0.0,0.0,0.0,0.0,0.0,0.0,-0.264,-0.153,-9.624,0.0,0.0,0.0,0.0,0.0,0.0,0.0,0.0,0.0
1580877018093783680,334,1580877018093398094,,0.0151528167112,0.00041407406192,0.887846481741,0.459890036366,0.0,0.0,0.0,0.0,0.0,0.0,0.0,0.0,0.0,-0.000655,0.000171,-0.000255,0.0,0.0,0.0,0.0,0.0,0.0,0.0,0.0,0.0,-0.245,-0.139,-9.655,0.0,0.0,0.0,0.0,0.0,0.0,0.0,0.0,0.0
1580877018118828663,335,1580877018118432044,,0.0151568336888,0.000421689715773,0.887842464763,0.45989765202,0.0,0.0,0.0,0.0,0.0,0.0,0.0,0.0,0.0,0.000161,-0.001132,-0.003781,0.0,0.0,0.0,0.0,0.0,0.0,0.0,0.0,0.0,-0.252,-0.129,-9.689,0.0,0.0,0.0,0.0,0.0,0.0,0.0,0.0,0.0
1580877018143803118,336,1580877018143409013,,0.0151450768648,0.000417824536731,0.887838528288,0.459905642232,0.0,0.0,0.0,0.0,0.0,0.0,0.0,0.0,0.0,-0.000314,0.001343,-0.003032,0.0,0.0,0.0,0.0,0.0,0.0,0.0,0.0,0.0,-0.274,-0.133,-9.678,0.0,0.0,0.0,0.0,0.0,0.0,0.0,0.0,0.0
1580877018169304976,337,1580877018168838977,,0.0151410598512,0.000410208814632,0.887842545301,0.45989802651,0.0,0.0,0.0,0.0,0.0,0.0,0.0,0.0,0.0,-0.000586,-0.000412,0.001988,0.0,0.0,0.0,0.0,0.0,0.0,0.0,0.0,0.0,-0.263,-0.134,-9.687,0.0,0.0,0.0,0.0,0.0,0.0,0.0,0.0,0.0
1580877018194085730,338,1580877018193612098,,0.0151410526894,0.000410473075916,0.887850571901,0.459882530665,0.0,0.0,0.0,0.0,0.0,0.0,0.0,0.0,0.0,0.000875,0.00038,0.003083,0.0,0.0,0.0,0.0,0.0,0.0,0.0,0.0,0.0,-0.27,-0.14,-9.677,0.0,0.0,0.0,0.0,0.0,0.0,0.0,0.0,0.0
1580877018218842941,339,1580877018218444108,,0.0151487963189,0.00040659053616,0.887854511783,0.459874672667,0.0,0.0,0.0,0.0,0.0,0.0,0.0,0.0,0.0,-0.00011,-0.000577,0.002494,0.0,0.0,0.0,0.0,0.0,0.0,0.0,0.0,0.0,-0.246,-0.14,-9.676,0.0,0.0,0.0,0.0,0.0,0.0,0.0,0.0,0.0
1580877018243966930,340,1580877018243563890,,0.0151528022481,0.000414602994752,0.887862534391,0.459859044397,0.0,0.0,0.0,0.0,0.0,0.0,0.0,0.0,0.0,0.00139,0.000117,0.002055,0.0,0.0,0.0,0.0,0.0,0.0,0.0,0.0,0.0,-0.261,-0.115,-9.648,0.0,0.0,0.0,0.0,0.0,0.0,0.0,0.0,0.0
1580877018268866439,341,1580877018268543958,,0.0151447796736,0.00039897470704,0.887858528428,0.459867056838,0.0,0.0,0.0,0.0,0.0,0.0,0.0,0.0,0.0,0.000408,0.000106,0.000661,0.0,0.0,0.0,0.0,0.0,0.0,0.0,0.0,0.0,-0.263,-0.137,-9.692,0.0,0.0,0.0,0.0,0.0,0.0,0.0,0.0,0.0
1580877018294021603,342,1580877018293625116,,0.0151447692233,0.000399371196308,0.887870567415,0.459843812599,0.0,0.0,0.0,0.0,0.0,0.0,0.0,0.0,0.0,-0.000769,-0.0002,0.001855,0.0,0.0,0.0,0.0,0.0,0.0,0.0,0.0,0.0,-0.265,-0.149,-9.679,0.0,0.0,0.0,0.0,0.0,0.0,0.0,0.0,0.0
1580877018319559105,343,1580877018318809986,,0.0151605459446,0.000410720759682,0.887866474032,0.459851186194,0.0,0.0,0.0,0.0,0.0,0.0,0.0,0.0,0.0,4.6e-05,0.000348,-0.003615,0.0,0.0,0.0,0.0,0.0,0.0,0.0,0.0,0.0,-0.246,-0.128,-9.696,0.0,0.0,0.0,0.0,0.0,0.0,0.0,0.0,0.0
1580877018344127761,344,1580877018343724966,,0.0151605423598,0.000410853060388,0.887870486957,0.45984343808,0.0,0.0,0.0,0.0,0.0,0.0,0.0,0.0,0.0,-0.000149,-0.001424,0.003569,0.0,0.0,0.0,0.0,0.0,0.0,0.0,0.0,0.0,-0.259,-0.134,-9.712,0.0,0.0,0.0,0.0,0.0,0.0,0.0,0.0,0.0
1580877018369186992,345,1580877018368782043,,0.015164547942,0.000418865863392,0.887878508983,0.459827809429,0.0,0.0,0.0,0.0,0.0,0.0,0.0,0.0,0.0,0.000624,-0.000833,-0.00035,0.0,0.0,0.0,0.0,0.0,0.0,0.0,0.0,0.0,-0.258,-0.153,-9.659,0.0,0.0,0.0,0.0,0.0,0.0,0.0,0.0,0.0
1580877018394157966,346,1580877018393714904,,0.0151800391913,0.000410969802117,0.88788237486,0.459819840729,0.0,0.0,0.0,0.0,0.0,0.0,0.0,0.0,0.0,0.001176,-0.000966,0.000199,0.0,0.0,0.0,0.0,0.0,0.0,0.0,0.0,0.0,-0.261,-0.135,-9.652,0.0,0.0,0.0,0.0,0.0,0.0,0.0,0.0,0.0
1580877018419668670,347,1580877018419118881,,0.0151722953601,0.000414851597346,0.887878435595,0.459827699205,0.0,0.0,0.0,0.0,0.0,0.0,0.0,0.0,0.0,-0.001268,0.000444,-0.00292,0.0,0.0,0.0,0.0,0.0,0.0,0.0,0.0,0.0,-0.276,-0.145,-9.661,0.0,0.0,0.0,0.0,0.0,0.0,0.0,0.0,0.0
1580877018444146854,348,1580877018443747997,,0.0151800427771,0.000410837331269,0.887878362141,0.459827588947,0.0,0.0,0.0,0.0,0.0,0.0,0.0,0.0,0.0,0.000122,0.000188,0.003032,0.0,0.0,0.0,0.0,0.0,0.0,0.0,0.0,0.0,-0.269,-0.144,-9.669,0.0,0.0,0.0,0.0,0.0,0.0,0.0,0.0,0.0
1580877018469129274,349,1580877018468749046,,0.0151840591815,0.000418453025744,0.887874345736,0.459835204641,0.0,0.0,0.0,0.0,0.0,0.0,0.0,0.0,0.0,-0.000215,-0.000468,-0.003434,0.0,0.0,0.0,0.0,0.0,0.0,0.0,0.0,0.0,-0.282,-0.16,-9.637,0.0,0.0,0.0,0.0,0.0,0.0,0.0,0.0,0.0
1580877018494346955,350,1580877018493837118,,0.0151840628326,0.000418320519815,0.887870332883,0.459842952789,0.0,0.0,0.0,0.0,0.0,0.0,0.0,0.0,0.0,1.6e-05,0.001311,-0.002986,0.0,0.0,0.0,0.0,0.0,0.0,0.0,0.0,0.0,-0.262,-0.147,-9.666,0.0,0.0,0.0,0.0,0.0,0.0,0.0,0.0,0.0
1580877018519234474,351,1580877018518836975,,0.0151958230627,0.000422054247511,0.887870255749,0.459842709835,0.0,0.0,0.0,0.0,0.0,0.0,0.0,0.0,0.0,-0.00046,-0.000104,0.001746,0.0,0.0,0.0,0.0,0.0,0.0,0.0,0.0,0.0,-0.253,-0.147,-9.691,0.0,0.0,0.0,0.0,0.0,0.0,0.0,0.0,0.0
1580877018544332498,352,1580877018543915033,,0.015199828443,0.000430067664259,0.887878277663,0.45982708088,0.0,0.0,0.0,0.0,0.0,0.0,0.0,0.0,0.0,-0.0004,0.000392,0.002714,0.0,0.0,0.0,0.0,0.0,0.0,0.0,0.0,0.0,-0.26,-0.117,-9.656,0.0,0.0,0.0,0.0,0.0,0.0,0.0,0.0,0.0
1580877018569474790,353,1580877018569055080,,0.0151880645592,0.000426466272865,0.887882367552,0.459819575717,0.0,0.0,0.0,0.0,0.0,0.0,0.0,0.0,0.0,-3.6e-05,0.000256,0.002378,0.0,0.0,0.0,0.0,0.0,0.0,0.0,0.0,0.0,-0.24,-0.134,-9.686,0.0,0.0,0.0,0.0,0.0,0.0,0.0,0.0,0.0
1580877018594275846,354,1580877018593888044,,0.015188060837,0.000426598813716,0.887886380201,0.459811827464,0.0,0.0,0.0,0.0,0.0,0.0,0.0,0.0,0.0,0.000628,9.7e-05,-0.00216,0.0,0.0,0.0,0.0,0.0,0.0,0.0,0.0,0.0,-0.274,-0.148,-9.677,0.0,0.0,0.0,0.0,0.0,0.0,0.0,0.0,0.0
1580877018619316369,355,1580877018618886947,,0.0151840482212,0.000418850543341,0.887886383889,0.459811959987,0.0,0.0,0.0,0.0,0.0,0.0,0.0,0.0,0.0,0.001086,0.001097,-0.000781,0.0,0.0,0.0,0.0,0.0,0.0,0.0,0.0,0.0,-0.239,-0.144,-9.669,0.0,0.0,0.0,0.0,0.0,0.0,0.0,0.0,0.0
1580877018644274160,356,1580877018643891096,,0.0151722917393,0.000414984000585,0.887882448315,0.459819950987,0.0,0.0,0.0,0.0,0.0,0.0,0.0,0.0,0.0,-0.000656,-0.00071,-0.004154,0.0,0.0,0.0,0.0,0.0,0.0,0.0,0.0,0.0,-0.254,-0.142,-9.67,0.0,0.0,0.0,0.0,0.0,0.0,0.0,0.0,0.0
1580877018669211268,357,1580877018668833971,,0.0151645406291,0.000419130534619,0.887886534357,0.459812312955,0.0,0.0,0.0,0.0,0.0,0.0,0.0,0.0,0.0,3.7e-05,0.001025,0.004276,0.0,0.0,0.0,0.0,0.0,0.0,0.0,0.0,0.0,-0.239,-0.149,-9.675,0.0,0.0,0.0,0.0,0.0,0.0,0.0,0.0,0.0
1580877018694250389,358,1580877018693871021,,0.0151722917393,0.000414984000585,0.887882448315,0.459819950987,0.0,0.0,0.0,0.0,0.0,0.0,0.0,0.0,0.0,-0.000192,-0.000553,-0.000715,0.0,0.0,0.0,0.0,0.0,0.0,0.0,0.0,0.0,-0.268,-0.148,-9.692,0.0,0.0,0.0,0.0,0.0,0.0,0.0,0.0,0.0
1580877018720279034,359,1580877018719048976,,0.0151608057595,0.000430892937742,0.887886603952,0.459812290857,0.0,0.0,0.0,0.0,0.0,0.0,0.0,0.0,0.0,-0.000498,0.001226,0.002487,0.0,0.0,0.0,0.0,0.0,0.0,0.0,0.0,0.0,-0.235,-0.145,-9.664,0.0,0.0,0.0,0.0,0.0,0.0,0.0,0.0,0.0
1580877018744943020,360,1580877018743997097,,0.0151685532479,0.000426878806307,0.887886530665,0.459812180602,0.0,0.0,0.0,0.0,0.0,0.0,0.0,0.0,0.0,-0.00027,-0.001322,0.002832,0.0,0.0,0.0,0.0,0.0,0.0,0.0,0.0,0.0,-0.263,-0.147,-9.688,0.0,0.0,0.0,0.0,0.0,0.0,0.0,0.0,0.0
1580877018769390742,361,1580877018768954992,,0.015153054474,0.000435039304507,0.887890689757,0.459804652786,0.0,0.0,0.0,0.0,0.0,0.0,0.0,0.0,0.0,-0.000327,0.000684,-0.00304,0.0,0.0,0.0,0.0,0.0,0.0,0.0,0.0,0.0,-0.274,-0.136,-9.681,0.0,0.0,0.0,0.0,0.0,0.0,0.0,0.0,0.0
1580877018794321303,362,1580877018793931007,,0.0151608095191,0.000430760634737,0.887882591299,0.459820039112,0.0,0.0,0.0,0.0,0.0,0.0,0.0,0.0,0.0,-0.000357,-0.001329,-0.001581,0.0,0.0,0.0,0.0,0.0,0.0,0.0,0.0,0.0,-0.237,-0.14,-9.677,0.0,0.0,0.0,0.0,0.0,0.0,0.0,0.0,0.0
1580877018820318631,363,1580877018819875955,,0.0151530582699,0.000434907069144,0.88788667717,0.459812401077,0.0,0.0,0.0,0.0,0.0,0.0,0.0,0.0,0.0,-0.000273,-0.000358,-0.000313,0.0,0.0,0.0,0.0,0.0,0.0,0.0,0.0,0.0,-0.242,-0.131,-9.651,0.0,0.0,0.0,0.0,0.0,0.0,0.0,0.0,0.0
1580877018845254260,364,1580877018844835042,,0.0151530582699,0.000434907069144,0.88788667717,0.459812401077,0.0,0.0,0.0,0.0,0.0,0.0,0.0,0.0,0.0,9.6e-05,0.000263,0.001551,0.0,0.0,0.0,0.0,0.0,0.0,0.0,0.0,0.0,-0.259,-0.132,-9.667,0.0,0.0,0.0,0.0,0.0,0.0,0.0,0.0,0.0
1580877018870188558,365,1580877018869810104,,0.015164547942,0.000418865863392,0.887878508983,0.459827809429,0.0,0.0,0.0,0.0,0.0,0.0,0.0,0.0,0.0,-0.000394,-0.001984,-0.002675,0.0,0.0,0.0,0.0,0.0,0.0,0.0,0.0,0.0,-0.251,-0.148,-9.677,0.0,0.0,0.0,0.0,0.0,0.0,0.0,0.0,0.0
1580877018895241362,366,1580877018894872903,,0.0151527805187,0.000415396393054,0.887886611337,0.459812555393,0.0,0.0,0.0,0.0,0.0,0.0,0.0,0.0,0.0,0.000184,-1.9e-05,0.003081,0.0,0.0,0.0,0.0,0.0,0.0,0.0,0.0,0.0,-0.253,-0.15,-9.707,0.0,0.0,0.0,0.0,0.0,0.0,0.0,0.0,0.0
1580877018921176026,367,1580877018919893026,,0.0151567931397,0.000423144665414,0.887886607678,0.459812423143,0.0,0.0,0.0,0.0,0.0,0.0,0.0,0.0,0.0,-0.000954,0.000802,0.002956,0.0,0.0,0.0,0.0,0.0,0.0,0.0,0.0,0.0,-0.247,-0.142,-9.648,0.0,0.0,0.0,0.0,0.0,0.0,0.0,0.0,0.0
1580877018945145091,368,1580877018944772005,,0.0151608057595,0.000430892937742,0.887886603952,0.459812290857,0.0,0.0,0.0,0.0,0.0,0.0,0.0,0.0,0.0,5.8e-05,0.000408,-0.004034,0.0,0.0,0.0,0.0,0.0,0.0,0.0,0.0,0.0,-0.262,-0.146,-9.693,0.0,0.0,0.0,0.0,0.0,0.0,0.0,0.0,0.0
1580877018970339147,369,1580877018969887971,,0.0151493272971,0.000446537271282,0.887882733804,0.459820127332,0.0,0.0,0.0,0.0,0.0,0.0,0.0,0.0,0.0,0.000201,0.00022,0.000837,0.0,0.0,0.0,0.0,0.0,0.0,0.0,0.0,0.0,-0.247,-0.159,-9.668,0.0,0.0,0.0,0.0,0.0,0.0,0.0,0.0,0.0
1580877018995363073,370,1580877018994898080,,0.0151570708895,0.000442655342078,0.887886673341,0.459812268824,0.0,0.0,0.0,0.0,0.0,0.0,0.0,0.0,0.0,-0.000791,0.000318,0.003244,0.0,0.0,0.0,0.0,0.0,0.0,0.0,0.0,0.0,-0.27,-0.147,-9.697,0.0,0.0,0.0,0.0,0.0,0.0,0.0,0.0,0.0
1580877019020188606,371,1580877019019805908,,0.015157067026,0.000442787612457,0.887890685927,0.459804520534,0.0,0.0,0.0,0.0,0.0,0.0,0.0,0.0,0.0,0.000456,0.001431,-0.00165,0.0,0.0,0.0,0.0,0.0,0.0,0.0,0.0,0.0,-0.266,-0.165,-9.662,0.0,0.0,0.0,0.0,0.0,0.0,0.0,0.0,0.0
1580877019045084574,372,1580877019044686079,,0.0151493233997,0.000446669474085,0.887886746458,0.459812379076,0.0,0.0,0.0,0.0,0.0,0.0,0.0,0.0,0.0,0.001056,0.001175,0.000123,0.0,0.0,0.0,0.0,0.0,0.0,0.0,0.0,0.0,-0.255,-0.13,-9.673,0.0,0.0,0.0,0.0,0.0,0.0,0.0,0.0,0.0
1580877019070071828,373,1580877019069753885,,0.0151493233997,0.000446669474085,0.887886746458,0.459812379076,0.0,0.0,0.0,0.0,0.0,0.0,0.0,0.0,0.0,-0.000617,-0.000152,0.00094,0.0,0.0,0.0,0.0,0.0,0.0,0.0,0.0,0.0,-0.252,-0.154,-9.656,0.0,0.0,0.0,0.0,0.0,0.0,0.0,0.0,0.0
1580877019095989648,374,1580877019095434904,,0.0151570747518,0.000442523071665,0.887882660689,0.459820017079,0.0,0.0,0.0,0.0,0.0,0.0,0.0,0.0,0.0,0.000324,0.000947,-0.00401,0.0,0.0,0.0,0.0,0.0,0.0,0.0,0.0,0.0,-0.25,-0.141,-9.689,0.0,0.0,0.0,0.0,0.0,0.0,0.0,0.0,0.0
1580877019120077271,375,1580877019119698047,,0.0151610874379,0.000450271309548,0.887882656793,0.459819884791,0.0,0.0,0.0,0.0,0.0,0.0,0.0,0.0,0.0,7e-05,-1e-06,-0.003158,0.0,0.0,0.0,0.0,0.0,0.0,0.0,0.0,0.0,-0.258,-0.136,-9.66,0.0,0.0,0.0,0.0,0.0,0.0,0.0,0.0,0.0
1580877019145101249,376,1580877019144717931,,0.0151651081144,0.000457754866399,0.887874627326,0.459835248874,0.0,0.0,0.0,0.0,0.0,0.0,0.0,0.0,0.0,-0.000426,-0.000411,-0.001662,0.0,0.0,0.0,0.0,0.0,0.0,0.0,0.0,0.0,-0.268,-0.133,-9.696,0.0,0.0,0.0,0.0,0.0,0.0,0.0,0.0,0.0
1580877019170444392,377,1580877019169797897,,0.015180614645,0.000449328766667,0.88786244228,0.459858272332,0.0,0.0,0.0,0.0,0.0,0.0,0.0,0.0,0.0,0.00019,-0.000103,-0.003881,0.0,0.0,0.0,0.0,0.0,0.0,0.0,0.0,0.0,-0.267,-0.145,-9.669,0.0,0.0,0.0,0.0,0.0,0.0,0.0,0.0,0.0
1580877019195059543,378,1580877019194658041,,0.0151688465683,0.000445859989938,0.887870545287,0.45984301899,0.0,0.0,0.0,0.0,0.0,0.0,0.0,0.0,0.0,0.000386,0.00039,0.002555,0.0,0.0,0.0,0.0,0.0,0.0,0.0,0.0,0.0,-0.253,-0.138,-9.659,0.0,0.0,0.0,0.0,0.0,0.0,0.0,0.0,0.0
1580877019219898124,379,1580877019219520092,,0.015172859455,0.000453608122094,0.887870541363,0.459842886599,0.0,0.0,0.0,0.0,0.0,0.0,0.0,0.0,0.0,0.00028,-0.000808,-0.00394,0.0,0.0,0.0,0.0,0.0,0.0,0.0,0.0,0.0,-0.271,-0.164,-9.687,0.0,0.0,0.0,0.0,0.0,0.0,0.0,0.0,0.0
1580877019244986630,380,1580877019244585037,,0.0151846196851,0.00045734184979,0.887870464228,0.459842643646,0.0,0.0,0.0,0.0,0.0,0.0,0.0,0.0,0.0,-0.000766,0.001385,-0.001161,0.0,0.0,0.0,0.0,0.0,0.0,0.0,0.0,0.0,-0.245,-0.135,-9.674,0.0,0.0,0.0,0.0,0.0,0.0,0.0,0.0,0.0
1580877019269939597,381,1580877019269613027,,0.0151768723407,0.000461356254216,0.88787053737,0.459842754174,0.0,0.0,0.0,0.0,0.0,0.0,0.0,0.0,0.0,0.000382,0.001048,0.002269,0.0,0.0,0.0,0.0,0.0,0.0,0.0,0.0,0.0,-0.225,-0.148,-9.656,0.0,0.0,0.0,0.0,0.0,0.0,0.0,0.0,0.0
1580877019294837148,382,1580877019294457912,,0.0151768642862,0.000461621140538,0.887878563005,0.459827257839,0.0,0.0,0.0,0.0,0.0,0.0,0.0,0.0,0.0,-0.000349,-0.00025,0.000828,0.0,0.0,0.0,0.0,0.0,0.0,0.0,0.0,0.0,-0.261,-0.154,-9.665,0.0,0.0,0.0,0.0,0.0,0.0,0.0,0.0,0.0
1580877019321019951,383,1580877019320549964,,0.0151731378805,0.000473118791331,0.88787060635,0.459842732273,0.0,0.0,0.0,0.0,0.0,0.0,0.0,0.0,0.0,-0.000376,-0.00017,0.001586,0.0,0.0,0.0,0.0,0.0,0.0,0.0,0.0,0.0,-0.25,-0.146,-9.667,0.0,0.0,0.0,0.0,0.0,0.0,0.0,0.0,0.0
1580877019345885760,384,1580877019345379114,,0.0151691290556,0.000465238283002,0.887866597525,0.459850612782,0.0,0.0,0.0,0.0,0.0,0.0,0.0,0.0,0.0,0.001257,0.000443,-0.00199,0.0,0.0,0.0,0.0,0.0,0.0,0.0,0.0,0.0,-0.276,-0.155,-9.679,0.0,0.0,0.0,0.0,0.0,0.0,0.0,0.0,0.0
1580877019371397244,385,1580877019370464086,,0.0151691249951,0.000465370658607,0.887870610445,0.459842864666,0.0,0.0,0.0,0.0,0.0,0.0,0.0,0.0,0.0,0.000257,0.000153,0.001527,0.0,0.0,0.0,0.0,0.0,0.0,0.0,0.0,0.0,-0.254,-0.148,-9.696,0.0,0.0,0.0,0.0,0.0,0.0,0.0,0.0,0.0
1580877019395810826,386,1580877019395417928,,0.0151613735516,0.000469517370925,0.887874696306,0.459835226973,0.0,0.0,0.0,0.0,0.0,0.0,0.0,0.0,0.0,3.6e-05,0.000159,0.002225,0.0,0.0,0.0,0.0,0.0,0.0,0.0,0.0,0.0,-0.258,-0.138,-9.656,0.0,0.0,0.0,0.0,0.0,0.0,0.0,0.0,0.0
1580877019420632955,387,1580877019420248031,,0.0151691128065,0.000465767785212,0.887882648799,0.459819620111,0.0,0.0,0.0,0.0,0.0,0.0,0.0,0.0,0.0,3.5e-05,-0.000118,0.000486,0.0,0.0,0.0,0.0,0.0,0.0,0.0,0.0,0.0,-0.259,-0.13,-9.706,0.0,0.0,0.0,0.0,0.0,0.0,0.0,0.0,0.0
1580877019445664022,388,1580877019445276021,,0.0151731337512,0.00047325120192,0.887874619201,0.459834984123,0.0,0.0,0.0,0.0,0.0,0.0,0.0,0.0,0.0,0.000981,0.000412,-0.002424,0.0,0.0,0.0,0.0,0.0,0.0,0.0,0.0,0.0,-0.242,-0.146,-9.679,0.0,0.0,0.0,0.0,0.0,0.0,0.0,0.0,0.0
1580877019470782440,389,1580877019470299005,,0.0151731213563,0.000473648433471,0.887886657349,0.459811739462,0.0,0.0,0.0,0.0,0.0,0.0,0.0,0.0,0.0,-0.000122,-0.000236,0.002503,0.0,0.0,0.0,0.0,0.0,0.0,0.0,0.0,0.0,-0.25,-0.13,-9.685,0.0,0.0,0.0,0.0,0.0,0.0,0.0,0.0,0.0
1580877019495639336,390,1580877019495187997,,0.0151768521958,0.000462018469758,0.88789060095,0.459804013075,0.0,0.0,0.0,0.0,0.0,0.0,0.0,0.0,0.0,-0.001119,0.000435,0.001827,0.0,0.0,0.0,0.0,0.0,0.0,0.0,0.0,0.0,-0.261,-0.145,-9.648,0.0,0.0,0.0,0.0,0.0,0.0,0.0,0.0,0.0
1580877019520612165,391,1580877019520222902,,0.015169104675,0.000466032536104,0.88789067403,0.459804123565,0.0,0.0,0.0,0.0,0.0,0.0,0.0,0.0,0.0,0.000159,3.8e-05,0.00051,0.0,0.0,0.0,0.0,0.0,0.0,0.0,0.0,0.0,-0.254,-0.118,-9.686,0.0,0.0,0.0,0.0,0.0,0.0,0.0,0.0,0.0
1580877019545643646,392,1580877019545258998,,0.0151613530506,0.000470178910197,0.887894759557,0.459796485694,0.0,0.0,0.0,0.0,0.0,0.0,0.0,0.0,0.0,-0.001124,0.001276,-0.000185,0.0,0.0,0.0,0.0,0.0,0.0,0.0,0.0,0.0,-0.246,-0.139,-9.675,0.0,0.0,0.0,0.0,0.0,0.0,0.0,0.0,0.0
1580877019570403373,393,1580877019570028066,,0.0151458537596,0.000478339080015,0.88789891783,0.459788958134,0.0,0.0,0.0,0.0,0.0,0.0,0.0,0.0,0.0,-0.000621,-0.00042,0.003001,0.0,0.0,0.0,0.0,0.0,0.0,0.0,0.0,0.0,-0.277,-0.125,-9.674,0.0,0.0,0.0,0.0,0.0,0.0,0.0,0.0,0.0
1580877019595476372,394,1580877019595020055,,0.0151613448421,0.000470443525655,0.887902784385,0.459780988937,0.0,0.0,0.0,0.0,0.0,0.0,0.0,0.0,0.0,-0.000343,-0.000398,0.002596,0.0,0.0,0.0,0.0,0.0,0.0,0.0,0.0,0.0,-0.267,-0.155,-9.666,0.0,0.0,0.0,0.0,0.0,0.0,0.0,0.0,0.0
1580877019620483573,395,1580877019620076894,,0.015153593073,0.000474589629162,0.887906869645,0.459773350923,0.0,0.0,0.0,0.0,0.0,0.0,0.0,0.0,0.0,0.001355,-0.000161,-0.002481,0.0,0.0,0.0,0.0,0.0,0.0,0.0,0.0,0.0,-0.252,-0.141,-9.663,0.0,0.0,0.0,0.0,0.0,0.0,0.0,0.0,0.0
1580877019646754265,396,1580877019645040988,,0.0151576137679,0.000482073528114,0.887898840778,0.459788715493,0.0,0.0,0.0,0.0,0.0,0.0,0.0,0.0,0.0,-0.000716,-0.000769,-0.001504,0.0,0.0,0.0,0.0,0.0,0.0,0.0,0.0,0.0,-0.237,-0.15,-9.651,0.0,0.0,0.0,0.0,0.0,0.0,0.0,0.0,0.0
1580877019670571994,397,1580877019670073986,,0.0151535889308,0.000474721869191,0.887910881891,0.459765602456,0.0,0.0,0.0,0.0,0.0,0.0,0.0,0.0,0.0,-0.001189,-0.000626,0.002187,0.0,0.0,0.0,0.0,0.0,0.0,0.0,0.0,0.0,-0.261,-0.138,-9.699,0.0,0.0,0.0,0.0,0.0,0.0,0.0,0.0,0.0
1580877019695584257,398,1580877019695130109,,0.0151380977432,0.000482617220718,0.887907015339,0.459773571652,0.0,0.0,0.0,0.0,0.0,0.0,0.0,0.0,0.0,0.001005,-0.000164,-0.004594,0.0,0.0,0.0,0.0,0.0,0.0,0.0,0.0,0.0,-0.258,-0.162,-9.679,0.0,0.0,0.0,0.0,0.0,0.0,0.0,0.0,0.0
1580877019721366308,399,1580877019720850944,,0.0151458412315,0.000478735597375,0.887910954772,0.459765712837,0.0,0.0,0.0,0.0,0.0,0.0,0.0,0.0,0.0,0.000379,0.000242,0.00019,0.0,0.0,0.0,0.0,0.0,0.0,0.0,0.0,0.0,-0.249,-0.115,-9.667,0.0,0.0,0.0,0.0,0.0,0.0,0.0,0.0,0.0
1580877019745362283,400,1580877019744971036,,0.0151461223035,0.000498114121513,0.88790700678,0.459773307372,0.0,0.0,0.0,0.0,0.0,0.0,0.0,0.0,0.0,0.000274,9.9e-05,-0.000317,0.0,0.0,0.0,0.0,0.0,0.0,0.0,0.0,0.0,-0.258,-0.138,-9.683,0.0,0.0,0.0,0.0,0.0,0.0,0.0,0.0,0.0
1580877019770324469,401,1580877019769917011,,0.0151423913672,0.000509744227206,0.887903062727,0.459781034128,0.0,0.0,0.0,0.0,0.0,0.0,0.0,0.0,0.0,0.000587,0.000563,0.001372,0.0,0.0,0.0,0.0,0.0,0.0,0.0,0.0,0.0,-0.266,-0.144,-9.663,0.0,0.0,0.0,0.0,0.0,0.0,0.0,0.0,0.0
1580877019795408882,402,1580877019795044898,,0.0151423869182,0.00050987636948,0.88790707504,0.459773285695,0.0,0.0,0.0,0.0,0.0,0.0,0.0,0.0,0.0,-0.000565,0.001074,-0.000331,0.0,0.0,0.0,0.0,0.0,0.0,0.0,0.0,0.0,-0.267,-0.151,-9.685,0.0,0.0,0.0,0.0,0.0,0.0,0.0,0.0,0.0
1580877019821116115,403,1580877019820758104,,0.0151423824681,0.000510008511715,0.887911087285,0.459765537226,0.0,0.0,0.0,0.0,0.0,0.0,0.0,0.0,0.0,0.001123,1.5e-05,0.001082,0.0,0.0,0.0,0.0,0.0,0.0,0.0,0.0,0.0,-0.237,-0.14,-9.701,0.0,0.0,0.0,0.0,0.0,0.0,0.0,0.0,0.0
1580877019846252798,404,1580877019845880031,,0.0151423913672,0.000509744227206,0.887903062727,0.459781034128,0.0,0.0,0.0,0.0,0.0,0.0,0.0,0.0,0.0,0.000635,-0.001141,-0.00171,0.0,0.0,0.0,0.0,0.0,0.0,0.0,0.0,0.0,-0.255,-0.141,-9.664,0.0,0.0,0.0,0.0,0.0,0.0,0.0,0.0,0.0
1580877019871139132,405,1580877019870774984,,0.0151383790201,0.000501995811245,0.887903067142,0.459781166253,0.0,0.0,0.0,0.0,0.0,0.0,0.0,0.0,0.0,-0.000379,0.000453,-0.003299,0.0,0.0,0.0,0.0,0.0,0.0,0.0,0.0,0.0,-0.251,-0.128,-9.66,0.0,0.0,0.0,0.0,0.0,0.0,0.0,0.0,0.0
1580877019895995249,406,1580877019895634889,,0.0151306313893,0.00050600967581,0.887903139749,0.459781276666,0.0,0.0,0.0,0.0,0.0,0.0,0.0,0.0,0.0,0.000338,0.000557,0.002555,0.0,0.0,0.0,0.0,0.0,0.0,0.0,0.0,0.0,-0.256,-0.145,-9.703,0.0,0.0,0.0,0.0,0.0,0.0,0.0,0.0,0.0
1580877019920956062,407,1580877019920603036,,0.0151421100239,0.000490365671134,0.887907011093,0.459773439529,0.0,0.0,0.0,0.0,0.0,0.0,0.0,0.0,0.0,-0.000337,0.000584,0.001971,0.0,0.0,0.0,0.0,0.0,0.0,0.0,0.0,0.0,-0.25,-0.138,-9.664,0.0,0.0,0.0,0.0,0.0,0.0,0.0,0.0,0.0
1580877019945964083,408,1580877019945580959,,0.0151343537274,0.00049464361187,0.887915108231,0.459758052937,0.0,0.0,0.0,0.0,0.0,0.0,0.0,0.0,0.0,-6e-06,-0.000145,0.004205,0.0,0.0,0.0,0.0,0.0,0.0,0.0,0.0,0.0,-0.265,-0.149,-9.691,0.0,0.0,0.0,0.0,0.0,0.0,0.0,0.0,0.0
1580877019971089535,409,1580877019970782041,,0.0151343494103,0.000494775684002,0.887919120343,0.459750304398,0.0,0.0,0.0,0.0,0.0,0.0,0.0,0.0,0.0,-0.000644,0.001121,0.002495,0.0,0.0,0.0,0.0,0.0,0.0,0.0,0.0,0.0,-0.235,-0.14,-9.681,0.0,0.0,0.0,0.0,0.0,0.0,0.0,0.0,0.0
1580877019995939977,410,1580877019995595932,,0.015138357102,0.000502656347161,0.887923128035,0.459742423735,0.0,0.0,0.0,0.0,0.0,0.0,0.0,0.0,0.0,0.000766,-0.000807,-0.003924,0.0,0.0,0.0,0.0,0.0,0.0,0.0,0.0,0.0,-0.252,-0.137,-9.658,0.0,0.0,0.0,0.0,0.0,0.0,0.0,0.0,0.0
1580877020020828750,411,1580877020020468950,,0.0151461092577,0.000498510645897,0.887919043313,0.459750061863,0.0,0.0,0.0,0.0,0.0,0.0,0.0,0.0,0.0,0.00108,0.001018,-0.003718,0.0,0.0,0.0,0.0,0.0,0.0,0.0,0.0,0.0,-0.275,-0.14,-9.679,0.0,0.0,0.0,0.0,0.0,0.0,0.0,0.0,0.0
1580877020045824142,412,1580877020045471906,,0.0151498407023,0.000486880704239,0.887922986891,0.459742335036,0.0,0.0,0.0,0.0,0.0,0.0,0.0,0.0,0.0,0.000898,0.000164,-0.000818,0.0,0.0,0.0,0.0,0.0,0.0,0.0,0.0,0.0,-0.252,-0.151,-9.669,0.0,0.0,0.0,0.0,0.0,0.0,0.0,0.0,0.0
1580877020070728099,413,1580877020070369958,,0.0151461005548,0.000498774995296,0.88792706733,0.459734564683,0.0,0.0,0.0,0.0,0.0,0.0,0.0,0.0,0.0,-0.001526,-0.000663,-0.002016,0.0,0.0,0.0,0.0,0.0,0.0,0.0,0.0,0.0,-0.252,-0.126,-9.673,0.0,0.0,0.0,0.0,0.0,0.0,0.0,0.0,0.0
1580877020095690759,414,1580877020095402956,,0.0151461005548,0.000498774995296,0.88792706733,0.459734564683,0.0,0.0,0.0,0.0,0.0,0.0,0.0,0.0,0.0,0.000332,-0.000173,0.003836,0.0,0.0,0.0,0.0,0.0,0.0,0.0,0.0,0.0,-0.249,-0.134,-9.679,0.0,0.0,0.0,0.0,0.0,0.0,0.0,0.0,0.0
1580877020120687686,415,1580877020120342016,,0.0151538483934,0.000494761536326,0.887926994582,0.459734454203,0.0,0.0,0.0,0.0,0.0,0.0,0.0,0.0,0.0,0.000612,-0.000166,0.001702,0.0,0.0,0.0,0.0,0.0,0.0,0.0,0.0,0.0,-0.262,-0.143,-9.699,0.0,0.0,0.0,0.0,0.0,0.0,0.0,0.0,0.0
1580877020145771023,416,1580877020145320892,,0.0151501036523,0.000506788039967,0.887935086688,0.45971893517,0.0,0.0,0.0,0.0,0.0,0.0,0.0,0.0,0.0,-0.000637,0.00014,-0.00059,0.0,0.0,0.0,0.0,0.0,0.0,0.0,0.0,0.0,-0.259,-0.122,-9.673,0.0,0.0,0.0,0.0,0.0,0.0,0.0,0.0,0.0
1580877020170669754,417,1580877020170249938,,0.0151460962016,0.000498907169939,0.887931079237,0.45972681604,0.0,0.0,0.0,0.0,0.0,0.0,0.0,0.0,0.0,-0.000221,-0.000841,-0.003718,0.0,0.0,0.0,0.0,0.0,0.0,0.0,0.0,0.0,-0.275,-0.135,-9.668,0.0,0.0,0.0,0.0,0.0,0.0,0.0,0.0,0.0
1580877020195533615,418,1580877020195126056,,0.0151538483934,0.000494761536326,0.887926994582,0.459734454203,0.0,0.0,0.0,0.0,0.0,0.0,0.0,0.0,0.0,0.00055,-0.00063,-0.002322,0.0,0.0,0.0,0.0,0.0,0.0,0.0,0.0,0.0,-0.264,-0.148,-9.65,0.0,0.0,0.0,0.0,0.0,0.0,0.0,0.0,0.0
1580877020220592064,419,1580877020220187902,,0.0151461005548,0.000498774995296,0.88792706733,0.459734564683,0.0,0.0,0.0,0.0,0.0,0.0,0.0,0.0,0.0,0.000226,0.000356,-0.002874,0.0,0.0,0.0,0.0,0.0,0.0,0.0,0.0,0.0,-0.259,-0.129,-9.671,0.0,0.0,0.0,0.0,0.0,0.0,0.0,0.0,0.0
1580877020245568189,420,1580877020245178937,,0.0151380893176,0.000482881430293,0.887915039766,0.459758074681,0.0,0.0,0.0,0.0,0.0,0.0,0.0,0.0,0.0,-0.00079,-0.001343,-0.004325,0.0,0.0,0.0,0.0,0.0,0.0,0.0,0.0,0.0,-0.25,-0.146,-9.677,0.0,0.0,0.0,0.0,0.0,0.0,0.0,0.0,0.0
1580877020270503143,421,1580877020270101070,,0.015142097181,0.00049076209048,0.88791904763,0.459750194021,0.0,0.0,0.0,0.0,0.0,0.0,0.0,0.0,0.0,0.001293,-2e-05,0.00237,0.0,0.0,0.0,0.0,0.0,0.0,0.0,0.0,0.0,-0.249,-0.153,-9.65,0.0,0.0,0.0,0.0,0.0,0.0,0.0,0.0,0.0
1580877020295452033,422,1580877020295002937,,0.0151343450919,0.000494907756097,0.887923132387,0.459742555825,0.0,0.0,0.0,0.0,0.0,0.0,0.0,0.0,0.0,0.000844,0.00052,-0.002308,0.0,0.0,0.0,0.0,0.0,0.0,0.0,0.0,0.0,-0.256,-0.122,-9.682,0.0,0.0,0.0,0.0,0.0,0.0,0.0,0.0,0.0
1580877020320283346,423,1580877020319866895,,0.0151420843277,0.000491158509489,0.887931083557,0.459726948197,0.0,0.0,0.0,0.0,0.0,0.0,0.0,0.0,0.0,-3.5e-05,3.3e-05,0.000825,0.0,0.0,0.0,0.0,0.0,0.0,0.0,0.0,0.0,-0.237,-0.139,-9.688,0.0,0.0,0.0,0.0,0.0,0.0,0.0,0.0,0.0
1580877020346178688,424,1580877020345793008,,0.0151420843277,0.000491158509489,0.887931083557,0.459726948197,0.0,0.0,0.0,0.0,0.0,0.0,0.0,0.0,0.0,4.2e-05,0.000359,0.000613,0.0,0.0,0.0,0.0,0.0,0.0,0.0,0.0,0.0,-0.259,-0.14,-9.671,0.0,0.0,0.0,0.0,0.0,0.0,0.0,0.0,0.0
1580877020370309002,425,1580877020369905948,,0.0151458119589,0.000479660803273,0.887939038605,0.459711472586,0.0,0.0,0.0,0.0,0.0,0.0,0.0,0.0,0.0,0.000349,-0.00022,-0.000609,0.0,0.0,0.0,0.0,0.0,0.0,0.0,0.0,0.0,-0.265,-0.16,-9.681,0.0,0.0,0.0,0.0,0.0,0.0,0.0,0.0,0.0
1580877020396120435,426,1580877020395735025,,0.0151380597918,0.000483806162645,0.887943123132,0.45970383418,0.0,0.0,0.0,0.0,0.0,0.0,0.0,0.0,0.0,-0.000268,0.000238,-0.001591,0.0,0.0,0.0,0.0,0.0,0.0,0.0,0.0,0.0,-0.251,-0.163,-9.665,0.0,0.0,0.0,0.0,0.0,0.0,0.0,0.0,0.0
1580877020421019228,427,1580877020420639038,,0.0151380640133,0.000483674058134,0.887939111426,0.459711582928,0.0,0.0,0.0,0.0,0.0,0.0,0.0,0.0,0.0,0.001076,-0.000775,0.000704,0.0,0.0,0.0,0.0,0.0,0.0,0.0,0.0,0.0,-0.261,-0.141,-9.68,0.0,0.0,0.0,0.0,0.0,0.0,0.0,0.0,0.0
1580877020445911431,428,1580877020445519924,,0.0151303203217,0.000487555276023,0.887935172404,0.459719441948,0.0,0.0,0.0,0.0,0.0,0.0,0.0,0.0,0.0,0.000199,-0.00019,-0.003275,0.0,0.0,0.0,0.0,0.0,0.0,0.0,0.0,0.0,-0.228,-0.13,-9.694,0.0,0.0,0.0,0.0,0.0,0.0,0.0,0.0,0.0
1580877020471082753,429,1580877020470623016,,0.0151303160664,0.000487687312958,0.887939184179,0.459711693235,0.0,0.0,0.0,0.0,0.0,0.0,0.0,0.0,0.0,-0.000477,-0.000923,0.000769,0.0,0.0,0.0,0.0,0.0,0.0,0.0,0.0,0.0,-0.235,-0.146,-9.659,0.0,0.0,0.0,0.0,0.0,0.0,0.0,0.0,0.0
1580877020495825230,430,1580877020495436906,,0.0151303245759,0.000487423239051,0.887931160561,0.459727190627,0.0,0.0,0.0,0.0,0.0,0.0,0.0,0.0,0.0,0.000293,-0.000246,-0.004021,0.0,0.0,0.0,0.0,0.0,0.0,0.0,0.0,0.0,-0.249,-0.145,-9.646,0.0,0.0,0.0,0.0,0.0,0.0,0.0,0.0,0.0
1580877020520779828,431,1580877020520389080,,0.0151228481141,0.000511079315548,0.88793530892,0.459719398585,0.0,0.0,0.0,0.0,0.0,0.0,0.0,0.0,0.0,0.000587,0.000619,0.001857,0.0,0.0,0.0,0.0,0.0,0.0,0.0,0.0,0.0,-0.282,-0.114,-9.701,0.0,0.0,0.0,0.0,0.0,0.0,0.0,0.0,0.0
1580877020545800452,432,1580877020545425891,,0.0151188406968,0.000503198681431,0.887931301503,0.459727279219,0.0,0.0,0.0,0.0,0.0,0.0,0.0,0.0,0.0,-0.00064,0.000992,-0.003384,0.0,0.0,0.0,0.0,0.0,0.0,0.0,0.0,0.0,-0.242,-0.145,-9.678,0.0,0.0,0.0,0.0,0.0,0.0,0.0,0.0,0.0
1580877020571642541,433,1580877020570432901,,0.0151151046952,0.000514960734987,0.887931369556,0.459727257603,0.0,0.0,0.0,0.0,0.0,0.0,0.0,0.0,0.0,-0.000799,-0.000924,0.002148,0.0,0.0,0.0,0.0,0.0,0.0,0.0,0.0,0.0,-0.264,-0.123,-9.641,0.0,0.0,0.0,0.0,0.0,0.0,0.0,0.0,0.0
1580877020595585083,434,1580877020595160007,,0.0151188406968,0.000503198681431,0.887931301503,0.459727279219,0.0,0.0,0.0,0.0,0.0,0.0,0.0,0.0,0.0,0.000321,-0.000462,0.00243,0.0,0.0,0.0,0.0,0.0,0.0,0.0,0.0,0.0,-0.252,-0.146,-9.657,0.0,0.0,0.0,0.0,0.0,0.0,0.0,0.0,0.0
1580877020620532942,435,1580877020620137929,,0.0151188275179,0.000503594491582,0.887943336831,0.459704033075,0.0,0.0,0.0,0.0,0.0,0.0,0.0,0.0,0.0,0.000941,0.000757,0.003751,0.0,0.0,0.0,0.0,0.0,0.0,0.0,0.0,0.0,-0.256,-0.137,-9.658,0.0,0.0,0.0,0.0,0.0,0.0,0.0,0.0,0.0
1580877020646060924,436,1580877020645543098,,0.0151228436535,0.000511211287275,0.887939320695,0.45971164987,0.0,0.0,0.0,0.0,0.0,0.0,0.0,0.0,0.0,0.000437,-0.000306,-0.003723,0.0,0.0,0.0,0.0,0.0,0.0,0.0,0.0,0.0,-0.259,-0.143,-9.67,0.0,0.0,0.0,0.0,0.0,0.0,0.0,0.0,0.0
1580877020670364377,437,1580877020669985055,,0.015126846334,0.00051922403296,0.887947339544,0.459696020346,0.0,0.0,0.0,0.0,0.0,0.0,0.0,0.0,0.0,0.001251,0.000224,0.000238,0.0,0.0,0.0,0.0,0.0,0.0,0.0,0.0,0.0,-0.272,-0.134,-9.632,0.0,0.0,0.0,0.0,0.0,0.0,0.0,0.0,0.0
1580877020695403509,438,1580877020694955110,,0.0151463630225,0.000518682237297,0.887939166614,0.459711164807,0.0,0.0,0.0,0.0,0.0,0.0,0.0,0.0,0.0,0.00132,-0.000461,-0.003665,0.0,0.0,0.0,0.0,0.0,0.0,0.0,0.0,0.0,-0.248,-0.139,-9.66,0.0,0.0,0.0,0.0,0.0,0.0,0.0,0.0,0.0
1580877020720375309,439,1580877020719974040,,0.0151423602004,0.000510669222306,0.887931147496,0.459726794359,0.0,0.0,0.0,0.0,0.0,0.0,0.0,0.0,0.0,0.000232,-0.001017,-0.002181,0.0,0.0,0.0,0.0,0.0,0.0,0.0,0.0,0.0,-0.251,-0.136,-9.681,0.0,0.0,0.0,0.0,0.0,0.0,0.0,0.0,0.0
1580877020745158073,440,1580877020744833946,,0.0151463765964,0.000518285706263,0.8879271311,0.459734410843,0.0,0.0,0.0,0.0,0.0,0.0,0.0,0.0,0.0,0.000801,-0.000126,0.001876,0.0,0.0,0.0,0.0,0.0,0.0,0.0,0.0,0.0,-0.263,-0.155,-9.691,0.0,0.0,0.0,0.0,0.0,0.0,0.0,0.0,0.0
1580877020770219943,441,1580877020769846916,,0.0151503931253,0.000525902120119,0.887923114571,0.459742027256,0.0,0.0,0.0,0.0,0.0,0.0,0.0,0.0,0.0,0.000646,7.7e-05,-0.001545,0.0,0.0,0.0,0.0,0.0,0.0,0.0,0.0,0.0,-0.259,-0.142,-9.676,0.0,0.0,0.0,0.0,0.0,0.0,0.0,0.0,0.0
1580877020795122869,442,1580877020794749021,,0.0151503931253,0.000525902120119,0.887923114571,0.459742027256,0.0,0.0,0.0,0.0,0.0,0.0,0.0,0.0,0.0,-0.000101,0.000102,0.001466,0.0,0.0,0.0,0.0,0.0,0.0,0.0,0.0,0.0,-0.24,-0.141,-9.668,0.0,0.0,0.0,0.0,0.0,0.0,0.0,0.0,0.0
1580877020821304323,443,1580877020819767951,,0.0151386378709,0.000522034947428,0.887919179626,0.45975001857,0.0,0.0,0.0,0.0,0.0,0.0,0.0,0.0,0.0,-0.001358,-0.001157,-0.004353,0.0,0.0,0.0,0.0,0.0,0.0,0.0,0.0,0.0,-0.229,-0.133,-9.667,0.0,0.0,0.0,0.0,0.0,0.0,0.0,0.0,0.0
1580877020845914456,444,1580877020845568895,,0.0151386424259,0.00052190283787,0.887915167516,0.459757767109,0.0,0.0,0.0,0.0,0.0,0.0,0.0,0.0,0.0,0.000724,0.000929,-0.002942,0.0,0.0,0.0,0.0,0.0,0.0,0.0,0.0,0.0,-0.261,-0.137,-9.65,0.0,0.0,0.0,0.0,0.0,0.0,0.0,0.0,0.0
1580877020870931120,445,1580877020870521068,,0.0151386424259,0.00052190283787,0.887915167516,0.459757767109,0.0,0.0,0.0,0.0,0.0,0.0,0.0,0.0,0.0,0.000813,-0.000712,-0.002019,0.0,0.0,0.0,0.0,0.0,0.0,0.0,0.0,0.0,-0.259,-0.139,-9.666,0.0,0.0,0.0,0.0,0.0,0.0,0.0,0.0,0.0
1580877020895983139,446,1580877020895462036,,0.0151423913672,0.000509744227206,0.887903062727,0.459781034128,0.0,0.0,0.0,0.0,0.0,0.0,0.0,0.0,0.0,0.001029,-3.3e-05,-0.001656,0.0,0.0,0.0,0.0,0.0,0.0,0.0,0.0,0.0,-0.256,-0.13,-9.699,0.0,0.0,0.0,0.0,0.0,0.0,0.0,0.0,0.0
1580877020920780747,447,1580877020920326948,,0.0151383702563,0.000502260025726,0.887911091702,0.459765669351,0.0,0.0,0.0,0.0,0.0,0.0,0.0,0.0,0.0,-0.000716,0.000366,0.002401,0.0,0.0,0.0,0.0,0.0,0.0,0.0,0.0,0.0,-0.264,-0.152,-9.663,0.0,0.0,0.0,0.0,0.0,0.0,0.0,0.0,0.0
1580877020945774656,448,1580877020945384979,,0.0151461136075,0.00049837847114,0.887915031203,0.459757810401,0.0,0.0,0.0,0.0,0.0,0.0,0.0,0.0,0.0,-0.000344,0.000245,0.002747,0.0,0.0,0.0,0.0,0.0,0.0,0.0,0.0,0.0,-0.255,-0.127,-9.684,0.0,0.0,0.0,0.0,0.0,0.0,0.0,0.0,0.0
